t,accX,accY,accZ
0,-0.5199300000000001,-2.5505999999999998,-9.46665
0,-0.4905,-2.54079,-9.476460000000001
1,-0.4905,-2.54079,-9.476460000000001
2,-0.50031,-2.52117,-9.46665
3,-0.50031,-2.52117,-9.46665
4,-0.50031,-2.52117,-9.46665
5,-0.51012,-2.54079,-9.46665
6,-0.51012,-2.54079,-9.46665
7,-0.4905,-2.54079,-9.476460000000001
8,-0.4905,-2.54079,-9.476460000000001
9,-0.4905,-2.54079,-9.476460000000001
10,-0.51012,-2.53098,-9.45684
11,-0.51012,-2.5505999999999998,-9.496080000000001
12,-0.51012,-2.5505999999999998,-9.496080000000001
13,-0.51012,-2.5505999999999998,-9.496080000000001
14,-0.51012,-2.5505999999999998,-9.496080000000001
15,-0.51012,-2.54079,-9.46665
16,-0.50031,-2.5505999999999998,-9.46665
17,-0.50031,-2.5505999999999998,-9.46665
18,-0.50031,-2.5505999999999998,-9.46665
19,-0.50031,-2.52117,-9.476460000000001
20,-0.50031,-2.52117,-9.476460000000001
21,-0.50031,-2.52117,-9.476460000000001
22,-0.50031,-2.52117,-9.476460000000001
23,-0.50031,-2.54079,-9.476460000000001
24,-0.51012,-2.54079,-9.447030000000002
25,-0.51012,-2.54079,-9.447030000000002
26,-0.51012,-2.54079,-9.447030000000002
27,-0.51012,-2.5505999999999998,-9.45684
28,-0.51012,-2.5505999999999998,-9.45684
29,-0.51012,-2.5505999999999998,-9.45684
30,-0.51012,-2.5505999999999998,-9.45684
31,-0.51012,-2.5505999999999998,-9.45684
32,-0.51012,-2.5505999999999998,-9.45684
33,-0.51012,-2.5505999999999998,-9.45684
34,-0.51012,-2.5505999999999998,-9.45684
35,-0.51012,-2.5505999999999998,-9.45684
36,-0.51012,-2.5505999999999998,-9.437220000000002
37,-0.51012,-2.5505999999999998,-9.437220000000002
38,-0.51012,-2.5505999999999998,-9.437220000000002
39,-0.51012,-2.5505999999999998,-9.437220000000002
40,-0.51012,-2.5505999999999998,-9.437220000000002
41,-0.51012,-2.5505999999999998,-9.437220000000002
42,-0.51012,-2.5505999999999998,-9.437220000000002
43,-0.51012,-2.5505999999999998,-9.437220000000002
44,-0.51012,-2.5505999999999998,-9.437220000000002
45,-0.51012,-2.5505999999999998,-9.437220000000002
46,-0.51012,-2.5505999999999998,-9.437220000000002
47,-0.50031,-2.53098,-9.437220000000002
48,-0.50031,-2.53098,-9.437220000000002
49,-0.50031,-2.53098,-9.437220000000002
50,-0.50031,-2.53098,-9.437220000000002
51,-0.50031,-2.53098,-9.437220000000002
52,-0.50031,-2.53098,-9.437220000000002
53,-0.50031,-2.53098,-9.437220000000002
54,-0.50031,-2.53098,-9.437220000000002
55,-0.50031,-2.53098,-9.437220000000002
56,-0.50031,-2.53098,-9.437220000000002
57,-0.50031,-2.54079,-9.45684
58,-0.50031,-2.54079,-9.45684
59,-0.50031,-2.54079,-9.45684
60,-0.50031,-2.54079,-9.45684
61,-0.50031,-2.54079,-9.45684
62,-0.50031,-2.54079,-9.45684
63,-0.50031,-2.54079,-9.45684
64,-0.50031,-2.54079,-9.45684
65,-0.50031,-2.54079,-9.45684
66,-0.50031,-2.54079,-9.45684
67,-0.50031,-2.54079,-9.45684
68,-0.4905,-2.53098,-9.447030000000002
69,-0.4905,-2.53098,-9.447030000000002
70,-0.4905,-2.53098,-9.447030000000002
71,-0.4905,-2.53098,-9.447030000000002
72,-0.4905,-2.53098,-9.447030000000002
73,-0.4905,-2.53098,-9.447030000000002
74,-0.4905,-2.53098,-9.447030000000002
75,-0.4905,-2.53098,-9.447030000000002
76,-0.4905,-2.53098,-9.447030000000002
77,-0.4905,-2.53098,-9.447030000000002
78,-0.51012,-2.53098,-9.496080000000001
79,-0.51012,-2.53098,-9.496080000000001
80,-0.51012,-2.53098,-9.496080000000001
81,-0.51012,-2.53098,-9.496080000000001
82,-0.51012,-2.53098,-9.496080000000001
83,-0.51012,-2.53098,-9.496080000000001
84,-0.51012,-2.53098,-9.496080000000001
85,-0.51012,-2.53098,-9.496080000000001
86,-0.51012,-2.53098,-9.496080000000001
87,-0.51012,-2.53098,-9.496080000000001
88,-0.50031,-2.5604100000000005,-9.45684
89,-0.50031,-2.5604100000000005,-9.45684
90,-0.50031,-2.5604100000000005,-9.45684
91,-0.50031,-2.5604100000000005,-9.45684
92,-0.50031,-2.5604100000000005,-9.45684
93,-0.50031,-2.5604100000000005,-9.45684
94,-0.50031,-2.5604100000000005,-9.45684
95,-0.50031,-2.5604100000000005,-9.45684
96,-0.50031,-2.5604100000000005,-9.45684
97,-0.50031,-2.5604100000000005,-9.45684
98,-0.51012,-2.54079,-9.476460000000001
99,-0.51012,-2.54079,-9.476460000000001
100,-0.51012,-2.54079,-9.476460000000001
101,-0.51012,-2.54079,-9.476460000000001
102,-0.51012,-2.54079,-9.476460000000001
103,-0.51012,-2.54079,-9.476460000000001
104,-0.51012,-2.54079,-9.476460000000001
105,-0.51012,-2.54079,-9.476460000000001
106,-0.51012,-2.54079,-9.476460000000001
107,-0.51012,-2.54079,-9.476460000000001
108,-0.50031,-2.5505999999999998,-9.46665
109,-0.50031,-2.5505999999999998,-9.46665
110,-0.50031,-2.5505999999999998,-9.46665
111,-0.50031,-2.5505999999999998,-9.46665
112,-0.50031,-2.5505999999999998,-9.46665
113,-0.50031,-2.5505999999999998,-9.46665
114,-0.50031,-2.5505999999999998,-9.46665
115,-0.50031,-2.5505999999999998,-9.46665
116,-0.50031,-2.5505999999999998,-9.46665
117,-0.50031,-2.5505999999999998,-9.46665
118,-0.51012,-2.54079,-9.486270000000001
119,-0.51012,-2.54079,-9.486270000000001
120,-0.51012,-2.54079,-9.486270000000001
121,-0.51012,-2.54079,-9.486270000000001
122,-0.51012,-2.54079,-9.486270000000001
123,-0.51012,-2.54079,-9.486270000000001
124,-0.51012,-2.54079,-9.486270000000001
125,-0.51012,-2.54079,-9.486270000000001
126,-0.51012,-2.54079,-9.486270000000001
127,-0.51012,-2.54079,-9.486270000000001
128,-0.51012,-2.54079,-9.486270000000001
129,-0.51012,-2.54079,-9.486270000000001
130,-0.51012,-2.54079,-9.486270000000001
131,-0.51012,-2.54079,-9.486270000000001
132,-0.51012,-2.54079,-9.486270000000001
133,-0.51012,-2.54079,-9.486270000000001
134,-0.51012,-2.54079,-9.486270000000001
135,-0.51012,-2.54079,-9.486270000000001
136,-0.51012,-2.54079,-9.486270000000001
137,-0.51012,-2.54079,-9.486270000000001
138,-0.51012,-2.54079,-9.486270000000001
139,-0.51012,-2.5505999999999998,-9.45684
140,-0.51012,-2.5505999999999998,-9.45684
141,-0.51012,-2.5505999999999998,-9.45684
142,-0.51012,-2.5505999999999998,-9.45684
143,-0.51012,-2.5505999999999998,-9.45684
144,-0.51012,-2.5505999999999998,-9.45684
145,-0.51012,-2.5505999999999998,-9.45684
146,-0.51012,-2.5505999999999998,-9.45684
147,-0.51012,-2.5505999999999998,-9.45684
148,-0.51012,-2.5505999999999998,-9.45684
149,-0.51012,-2.5505999999999998,-9.45684
150,-0.51012,-2.52117,-9.46665
151,-0.51012,-2.52117,-9.46665
152,-0.51012,-2.52117,-9.46665
153,-0.51012,-2.52117,-9.46665
154,-0.51012,-2.52117,-9.46665
155,-0.51012,-2.52117,-9.46665
156,-0.51012,-2.52117,-9.46665
157,-0.51012,-2.52117,-9.46665
158,-0.51012,-2.52117,-9.46665
159,-0.51012,-2.52117,-9.46665
160,-0.4905,-2.53098,-9.46665
161,-0.4905,-2.53098,-9.46665
162,-0.4905,-2.53098,-9.46665
163,-0.4905,-2.53098,-9.46665
164,-0.4905,-2.53098,-9.46665
165,-0.4905,-2.53098,-9.46665
166,-0.4905,-2.53098,-9.46665
167,-0.4905,-2.53098,-9.46665
168,-0.4905,-2.53098,-9.46665
169,-0.4905,-2.53098,-9.46665
170,-0.4905,-2.53098,-9.46665
171,-0.50031,-2.5505999999999998,-9.46665
172,-0.50031,-2.5505999999999998,-9.46665
173,-0.50031,-2.5505999999999998,-9.46665
174,-0.50031,-2.5505999999999998,-9.46665
175,-0.50031,-2.5505999999999998,-9.46665
176,-0.50031,-2.5505999999999998,-9.46665
177,-0.50031,-2.5505999999999998,-9.46665
178,-0.50031,-2.5505999999999998,-9.46665
179,-0.50031,-2.5505999999999998,-9.46665
180,-0.50031,-2.5505999999999998,-9.476460000000001
181,-0.50031,-2.5505999999999998,-9.476460000000001
182,-0.50031,-2.5505999999999998,-9.476460000000001
183,-0.50031,-2.5505999999999998,-9.476460000000001
184,-0.50031,-2.5505999999999998,-9.476460000000001
185,-0.50031,-2.5505999999999998,-9.476460000000001
186,-0.50031,-2.5505999999999998,-9.476460000000001
187,-0.50031,-2.5505999999999998,-9.476460000000001
188,-0.50031,-2.5505999999999998,-9.476460000000001
189,-0.50031,-2.5505999999999998,-9.476460000000001
190,-0.50031,-2.5505999999999998,-9.476460000000001
191,-0.50031,-2.52117,-9.476460000000001
192,-0.50031,-2.52117,-9.476460000000001
193,-0.50031,-2.52117,-9.476460000000001
194,-0.50031,-2.52117,-9.476460000000001
195,-0.50031,-2.52117,-9.476460000000001
196,-0.50031,-2.52117,-9.476460000000001
197,-0.50031,-2.52117,-9.476460000000001
198,-0.50031,-2.52117,-9.476460000000001
199,-0.50031,-2.52117,-9.476460000000001
200,-0.50031,-2.52117,-9.476460000000001
201,-0.51012,-2.5505999999999998,-9.46665
202,-0.51012,-2.5505999999999998,-9.46665
203,-0.51012,-2.5505999999999998,-9.46665
204,-0.51012,-2.5505999999999998,-9.46665
205,-0.51012,-2.5505999999999998,-9.46665
206,-0.51012,-2.5505999999999998,-9.46665
207,-0.51012,-2.5505999999999998,-9.46665
208,-0.51012,-2.5505999999999998,-9.46665
209,-0.51012,-2.5505999999999998,-9.46665
210,-0.51012,-2.5505999999999998,-9.46665
211,-0.51012,-2.5505999999999998,-9.46665
212,-0.50031,-2.53098,-9.476460000000001
213,-0.50031,-2.53098,-9.476460000000001
214,-0.50031,-2.5604100000000005,-9.486270000000001
215,-0.50031,-2.5604100000000005,-9.486270000000001
216,-0.50031,-2.5505999999999998,-9.447030000000002
217,-0.50031,-2.5505999999999998,-9.447030000000002
218,-0.50031,-2.5505999999999998,-9.447030000000002
219,-0.50031,-2.5505999999999998,-9.447030000000002
220,-0.50031,-2.5505999999999998,-9.447030000000002
221,-0.5199300000000001,-2.5505999999999998,-9.45684
222,-0.5199300000000001,-2.5505999999999998,-9.45684
223,-0.5199300000000001,-2.5505999999999998,-9.45684
224,-0.5199300000000001,-2.5505999999999998,-9.45684
225,-0.5199300000000001,-2.5505999999999998,-9.45684
226,-0.51012,-2.52117,-9.476460000000001
227,-0.51012,-2.52117,-9.476460000000001
228,-0.51012,-2.52117,-9.476460000000001
229,-0.51012,-2.52117,-9.476460000000001
230,-0.51012,-2.52117,-9.476460000000001
231,-0.4905,-2.66832,-9.46665
232,-0.4905,-2.66832,-9.46665
233,-0.4905,-2.66832,-9.46665
234,-0.4905,-2.66832,-9.46665
235,-0.4905,-2.66832,-9.46665
236,-0.51012,-2.5505999999999998,-9.447030000000002
237,-0.51012,-2.5505999999999998,-9.447030000000002
238,-0.51012,-2.5505999999999998,-9.447030000000002
239,-0.51012,-2.5505999999999998,-9.447030000000002
240,-0.51012,-2.5505999999999998,-9.447030000000002
241,-0.51012,-2.52117,-9.476460000000001
242,-0.51012,-2.52117,-9.476460000000001
243,-0.51012,-2.52117,-9.476460000000001
244,-0.51012,-2.52117,-9.476460000000001
245,-0.51012,-2.52117,-9.476460000000001
246,-0.51012,-2.54079,-9.45684
247,-0.51012,-2.54079,-9.45684
248,-0.51012,-2.54079,-9.45684
249,-0.51012,-2.54079,-9.45684
250,-0.51012,-2.54079,-9.45684
251,-0.51012,-2.52117,-9.46665
252,-0.51012,-2.52117,-9.46665
253,-0.51012,-2.52117,-9.46665
254,-0.51012,-2.52117,-9.46665
255,-0.51012,-2.52117,-9.46665
256,-0.50031,-2.54079,-9.476460000000001
257,-0.50031,-2.54079,-9.476460000000001
258,-0.50031,-2.54079,-9.476460000000001
259,-0.50031,-2.54079,-9.476460000000001
260,-0.50031,-2.54079,-9.476460000000001
261,-0.51012,-2.53098,-9.476460000000001
262,-0.51012,-2.53098,-9.476460000000001
263,-0.51012,-2.53098,-9.476460000000001
264,-0.51012,-2.53098,-9.476460000000001
265,-0.51012,-2.53098,-9.476460000000001
266,-0.50031,-2.54079,-9.486270000000001
267,-0.50031,-2.54079,-9.486270000000001
268,-0.50031,-2.54079,-9.486270000000001
269,-0.50031,-2.54079,-9.486270000000001
270,-0.50031,-2.54079,-9.486270000000001
271,-0.5199300000000001,-2.5505999999999998,-9.46665
272,-0.5199300000000001,-2.5505999999999998,-9.46665
273,-0.5199300000000001,-2.5505999999999998,-9.46665
274,-0.5199300000000001,-2.5505999999999998,-9.46665
275,-0.5199300000000001,-2.5505999999999998,-9.46665
276,-0.51012,-2.5505999999999998,-9.476460000000001
277,-0.51012,-2.5505999999999998,-9.476460000000001
278,-0.51012,-2.5505999999999998,-9.476460000000001
279,-0.51012,-2.5505999999999998,-9.476460000000001
280,-0.51012,-2.5505999999999998,-9.476460000000001
281,-0.4905,-2.54079,-9.46665
282,-0.4905,-2.54079,-9.46665
283,-0.4905,-2.54079,-9.46665
284,-0.4905,-2.54079,-9.46665
285,-0.4905,-2.54079,-9.46665
286,-0.51012,-2.5505999999999998,-9.486270000000001
287,-0.51012,-2.5505999999999998,-9.486270000000001
288,-0.51012,-2.5505999999999998,-9.486270000000001
289,-0.51012,-2.5505999999999998,-9.486270000000001
290,-0.51012,-2.5505999999999998,-9.486270000000001
291,-0.50031,-2.53098,-9.46665
292,-0.50031,-2.53098,-9.46665
293,-0.50031,-2.53098,-9.46665
294,-0.50031,-2.53098,-9.46665
295,-0.50031,-2.53098,-9.46665
296,-0.51012,-2.53098,-9.486270000000001
297,-0.51012,-2.53098,-9.486270000000001
298,-0.51012,-2.53098,-9.486270000000001
299,-0.51012,-2.53098,-9.486270000000001
300,-0.51012,-2.53098,-9.486270000000001
301,-0.51012,-2.54079,-9.496080000000001
302,-0.51012,-2.54079,-9.496080000000001
303,-0.51012,-2.54079,-9.496080000000001
304,-0.51012,-2.54079,-9.496080000000001
305,-0.51012,-2.54079,-9.496080000000001
306,-0.50031,-2.5604100000000005,-9.476460000000001
307,-0.50031,-2.5604100000000005,-9.476460000000001
308,-0.50031,-2.5604100000000005,-9.476460000000001
309,-0.50031,-2.5604100000000005,-9.476460000000001
310,-0.50031,-2.5604100000000005,-9.476460000000001
311,-0.51012,-2.5505999999999998,-9.46665
312,-0.51012,-2.5505999999999998,-9.46665
313,-0.4905,-2.54079,-9.45684
314,-0.4905,-2.54079,-9.45684
315,-0.4905,-2.54079,-9.45684
316,-0.50031,-2.54079,-9.476460000000001
317,-0.50031,-2.54079,-9.476460000000001
318,-0.51012,-2.54079,-9.45684
319,-0.51012,-2.54079,-9.45684
320,-0.51012,-2.54079,-9.45684
321,-0.5199300000000001,-2.54079,-9.496080000000001
322,-0.5199300000000001,-2.54079,-9.496080000000001
323,-0.5199300000000001,-2.54079,-9.496080000000001
324,-0.51012,-2.54079,-9.476460000000001
325,-0.4905,-2.54079,-9.45684
326,-0.4905,-2.54079,-9.45684
327,-0.4905,-2.54079,-9.45684
328,-0.51012,-2.54079,-9.46665
329,-0.51012,-2.54079,-9.46665
330,-0.51012,-2.54079,-9.46665
331,-0.5199300000000001,-2.53098,-9.45684
332,-0.5199300000000001,-2.53098,-9.45684
333,-0.4905,-2.5505999999999998,-9.46665
334,-0.4905,-2.5505999999999998,-9.46665
335,-0.50031,-2.53098,-9.46665
336,-0.50031,-2.53098,-9.46665
337,-0.51012,-2.52117,-9.45684
338,-0.51012,-2.52117,-9.45684
339,-0.51012,-2.52117,-9.45684
340,-0.4905,-2.54079,-9.486270000000001
341,-0.4905,-2.54079,-9.486270000000001
342,-0.4905,-2.54079,-9.45684
343,-0.4905,-2.54079,-9.45684
344,-0.4905,-2.54079,-9.45684
345,-0.50031,-2.53098,-9.486270000000001
346,-0.50031,-2.53098,-9.486270000000001
347,-0.51012,-2.54079,-9.46665
348,-0.51012,-2.54079,-9.46665
349,-0.50031,-2.53098,-9.437220000000002
350,-0.50031,-2.53098,-9.437220000000002
351,-0.50031,-2.53098,-9.437220000000002
352,-0.51012,-2.53098,-9.46665
353,-0.51012,-2.53098,-9.46665
354,-0.51012,-2.53098,-9.476460000000001
355,-0.51012,-2.53098,-9.476460000000001
356,-0.51012,-2.53098,-9.476460000000001
357,-0.5199300000000001,-2.54079,-9.486270000000001
358,-0.5199300000000001,-2.54079,-9.486270000000001
359,-0.51012,-2.5505999999999998,-9.476460000000001
360,-0.51012,-2.5505999999999998,-9.476460000000001
361,-0.51012,-2.53098,-9.45684
362,-0.51012,-2.53098,-9.45684
363,-0.51012,-2.53098,-9.45684
364,-0.4905,-2.53098,-9.45684
365,-0.4905,-2.53098,-9.45684
366,-0.51012,-2.54079,-9.486270000000001
367,-0.51012,-2.54079,-9.486270000000001
368,-0.51012,-2.54079,-9.486270000000001
369,-0.51012,-2.52117,-9.46665
370,-0.51012,-2.52117,-9.46665
371,-0.50031,-2.54079,-9.45684
372,-0.50031,-2.54079,-9.45684
373,-0.5199300000000001,-2.54079,-9.486270000000001
374,-0.5199300000000001,-2.54079,-9.486270000000001
375,-0.5199300000000001,-2.54079,-9.486270000000001
376,-0.51012,-2.5505999999999998,-9.486270000000001
377,-0.51012,-2.5505999999999998,-9.486270000000001
378,-0.50031,-2.54079,-9.476460000000001
379,-0.50031,-2.54079,-9.476460000000001
380,-0.50031,-2.54079,-9.476460000000001
381,-0.4905,-2.5505999999999998,-9.486270000000001
382,-0.4905,-2.5505999999999998,-9.486270000000001
383,-0.50031,-2.5505999999999998,-9.447030000000002
384,-0.50031,-2.5505999999999998,-9.447030000000002
385,-0.50031,-2.5505999999999998,-9.447030000000002
386,-0.50031,-2.54079,-9.46665
387,-0.50031,-2.54079,-9.46665
388,-0.51012,-2.53098,-9.476460000000001
389,-0.51012,-2.53098,-9.476460000000001
390,-0.50031,-2.54079,-9.46665
391,-0.50031,-2.54079,-9.46665
392,-0.50031,-2.54079,-9.46665
393,-0.50031,-2.5505999999999998,-9.476460000000001
394,-0.50031,-2.5505999999999998,-9.476460000000001
395,-0.51012,-2.53098,-9.447030000000002
396,-0.51012,-2.53098,-9.447030000000002
397,-0.51012,-2.53098,-9.447030000000002
398,-0.51012,-2.53098,-9.447030000000002
399,-0.51012,-2.53098,-9.447030000000002
400,-0.51012,-2.53098,-9.447030000000002
401,-0.51012,-2.53098,-9.447030000000002
402,-0.50031,-2.54079,-9.46665
403,-0.51012,-2.5505999999999998,-9.447030000000002
404,-0.51012,-2.5505999999999998,-9.447030000000002
405,-0.51012,-2.54079,-9.45684
406,-0.51012,-2.54079,-9.45684
407,-0.51012,-2.52117,-9.45684
408,-0.51012,-2.52117,-9.45684
409,-0.51012,-2.52117,-9.45684
410,-0.50031,-2.54079,-9.476460000000001
411,-0.50031,-2.54079,-9.476460000000001
412,-0.50031,-2.53098,-9.45684
413,-0.50031,-2.53098,-9.45684
414,-0.51012,-2.54079,-9.476460000000001
415,-0.51012,-2.54079,-9.476460000000001
416,-0.51012,-2.54079,-9.476460000000001
417,-0.4905,-2.5505999999999998,-9.476460000000001
418,-0.4905,-2.5505999999999998,-9.476460000000001
419,-0.50031,-2.52117,-9.46665
420,-0.50031,-2.52117,-9.46665
421,-0.50031,-2.52117,-9.46665
422,-0.4905,-2.52117,-9.45684
423,-0.4905,-2.52117,-9.45684
424,-0.4905,-2.52117,-9.486270000000001
425,-0.4905,-2.52117,-9.486270000000001
426,-0.4905,-2.52117,-9.486270000000001
427,-0.51012,-2.53098,-9.46665
428,-0.51012,-2.53098,-9.46665
429,-0.51012,-2.54079,-9.476460000000001
430,-0.51012,-2.54079,-9.476460000000001
431,-0.4905,-2.54079,-9.476460000000001
432,-0.4905,-2.54079,-9.476460000000001
433,-0.5199300000000001,-2.53098,-9.50589
434,-0.5199300000000001,-2.53098,-9.50589
435,-0.5199300000000001,-2.53098,-9.50589
436,-0.48069,-2.53098,-9.46665
437,-0.48069,-2.53098,-9.46665
438,-0.48069,-2.53098,-9.46665
439,-0.51012,-2.5505999999999998,-9.476460000000001
440,-0.51012,-2.5505999999999998,-9.476460000000001
441,-0.51012,-2.5505999999999998,-9.476460000000001
442,-0.51012,-2.5505999999999998,-9.476460000000001
443,-0.51012,-2.5505999999999998,-9.476460000000001
444,-0.51012,-2.5505999999999998,-9.476460000000001
445,-0.51012,-2.5505999999999998,-9.476460000000001
446,-0.51012,-2.5505999999999998,-9.476460000000001
447,-0.51012,-2.5505999999999998,-9.476460000000001
448,-0.50031,-2.5505999999999998,-9.46665
449,-0.50031,-2.5505999999999998,-9.46665
450,-0.50031,-2.5505999999999998,-9.46665
451,-0.50031,-2.5505999999999998,-9.46665
452,-0.50031,-2.5505999999999998,-9.46665
453,-0.50031,-2.5505999999999998,-9.46665
454,-0.50031,-2.5505999999999998,-9.46665
455,-0.50031,-2.5505999999999998,-9.46665
456,-0.50031,-2.5505999999999998,-9.46665
457,-0.50031,-2.5505999999999998,-9.46665
458,-0.50031,-2.5505999999999998,-9.46665
459,-0.50031,-2.54079,-9.486270000000001
460,-0.50031,-2.54079,-9.486270000000001
461,-0.50031,-2.5505999999999998,-9.45684
462,-0.50031,-2.5505999999999998,-9.45684
463,-0.51012,-2.52117,-9.486270000000001
464,-0.51012,-2.52117,-9.486270000000001
465,-0.51012,-2.52117,-9.486270000000001
466,-0.51012,-2.53098,-9.496080000000001
467,-0.51012,-2.53098,-9.496080000000001
468,-0.51012,-2.54079,-9.476460000000001
469,-0.51012,-2.54079,-9.476460000000001
470,-0.51012,-2.54079,-9.476460000000001
471,-0.51012,-2.53098,-9.46665
472,-0.51012,-2.53098,-9.46665
473,-0.50031,-2.53098,-9.486270000000001
474,-0.50031,-2.53098,-9.486270000000001
475,-0.50031,-2.53098,-9.447030000000002
476,-0.50031,-2.53098,-9.447030000000002
477,-0.50031,-2.53098,-9.447030000000002
478,-0.51012,-2.53098,-9.46665
479,-0.51012,-2.53098,-9.46665
480,-0.51012,-2.52117,-9.45684
481,-0.51012,-2.52117,-9.45684
482,-0.50031,-2.54079,-9.46665
483,-0.50031,-2.54079,-9.46665
484,-0.50031,-2.54079,-9.46665
485,-0.51012,-2.54079,-9.476460000000001
486,-0.51012,-2.54079,-9.476460000000001
487,-0.51012,-2.54079,-9.45684
488,-0.51012,-2.54079,-9.45684
489,-0.51012,-2.54079,-9.45684
490,-0.4905,-2.54079,-9.476460000000001
491,-0.4905,-2.54079,-9.476460000000001
492,-0.50031,-2.53098,-9.45684
493,-0.50031,-2.53098,-9.45684
494,-0.51012,-2.53098,-9.476460000000001
495,-0.51012,-2.53098,-9.476460000000001
496,-0.51012,-2.53098,-9.476460000000001
497,-0.51012,-2.53098,-9.46665
498,-0.51012,-2.53098,-9.46665
499,-0.51012,-2.53098,-9.46665
500,-0.4905,-2.54079,-9.476460000000001
501,-0.4905,-2.54079,-9.476460000000001
502,-0.50031,-2.53098,-9.476460000000001
503,-0.50031,-2.53098,-9.476460000000001
504,-0.50031,-2.53098,-9.476460000000001
505,-0.50031,-2.53098,-9.476460000000001
506,-0.50031,-2.53098,-9.476460000000001
507,-0.51012,-2.54079,-9.476460000000001
508,-0.50031,-2.54079,-9.496080000000001
509,-0.50031,-2.54079,-9.496080000000001
510,-0.50031,-2.54079,-9.496080000000001
511,-0.48069,-2.54079,-9.46665
512,-0.48069,-2.54079,-9.46665
513,-0.50031,-2.52117,-9.46665
514,-0.50031,-2.52117,-9.46665
515,-0.50031,-2.52117,-9.46665
516,-0.51012,-2.54079,-9.486270000000001
517,-0.51012,-2.54079,-9.486270000000001
518,-0.51012,-2.54079,-9.486270000000001
519,-0.51012,-2.54079,-9.486270000000001
520,-0.50031,-2.53098,-9.447030000000002
521,-0.51012,-2.52117,-9.46665
522,-0.51012,-2.52117,-9.46665
523,-0.51012,-2.52117,-9.46665
524,-0.51012,-2.52117,-9.46665
525,-0.50031,-2.5505999999999998,-9.45684
526,-0.50031,-2.54079,-9.50589
527,-0.50031,-2.54079,-9.50589
528,-0.5199300000000001,-2.52117,-9.45684
529,-0.5199300000000001,-2.52117,-9.45684
530,-0.5199300000000001,-2.52117,-9.45684
531,-0.50031,-2.54079,-9.476460000000001
532,-0.50031,-2.54079,-9.476460000000001
533,-0.51012,-2.5604100000000005,-9.486270000000001
534,-0.51012,-2.5604100000000005,-9.486270000000001
535,-0.51012,-2.54079,-9.476460000000001
536,-0.51012,-2.54079,-9.476460000000001
537,-0.51012,-2.54079,-9.476460000000001
538,-0.48069,-2.52117,-9.46665
539,-0.48069,-2.52117,-9.46665
540,-0.51012,-2.53098,-9.476460000000001
541,-0.51012,-2.53098,-9.476460000000001
542,-0.51012,-2.5505999999999998,-9.46665
543,-0.51012,-2.5505999999999998,-9.46665
544,-0.51012,-2.5505999999999998,-9.46665
545,-0.50031,-2.5604100000000005,-9.496080000000001
546,-0.50031,-2.5604100000000005,-9.496080000000001
547,-0.5199300000000001,-2.5505999999999998,-9.476460000000001
548,-0.5199300000000001,-2.5505999999999998,-9.476460000000001
549,-0.50031,-2.5505999999999998,-9.486270000000001
550,-0.50031,-2.5505999999999998,-9.486270000000001
551,-0.50031,-2.5505999999999998,-9.486270000000001
552,-0.50031,-2.5505999999999998,-9.486270000000001
553,-0.50031,-2.5505999999999998,-9.486270000000001
554,-0.4905,-2.5505999999999998,-9.46665
555,-0.4905,-2.5505999999999998,-9.46665
556,-0.4905,-2.5505999999999998,-9.46665
557,-0.51012,-2.53098,-9.46665
558,-0.51012,-2.53098,-9.46665
559,-0.5199300000000001,-2.53098,-9.486270000000001
560,-0.5199300000000001,-2.53098,-9.486270000000001
561,-0.5199300000000001,-2.53098,-9.486270000000001
562,-0.5199300000000001,-2.53098,-9.486270000000001
563,-0.5199300000000001,-2.53098,-9.486270000000001
564,-0.5199300000000001,-2.53098,-9.486270000000001
565,-0.5199300000000001,-2.53098,-9.486270000000001
566,-0.4905,-2.54079,-9.45684
567,-0.4905,-2.54079,-9.45684
568,-0.4905,-2.54079,-9.45684
569,-0.4905,-2.5505999999999998,-9.46665
570,-0.4905,-2.5505999999999998,-9.46665
571,-0.51012,-2.52117,-9.447030000000002
572,-0.51012,-2.52117,-9.447030000000002
573,-0.50031,-2.54079,-9.46665
574,-0.50031,-2.54079,-9.46665
575,-0.50031,-2.54079,-9.46665
576,-0.5199300000000001,-2.54079,-9.46665
577,-0.5199300000000001,-2.54079,-9.46665
578,-0.51012,-2.54079,-9.447030000000002
579,-0.51012,-2.54079,-9.447030000000002
580,-0.51012,-2.54079,-9.447030000000002
581,-0.51012,-2.5505999999999998,-9.447030000000002
582,-0.51012,-2.5505999999999998,-9.447030000000002
583,-0.5199300000000001,-2.5702200000000004,-9.46665
584,-0.5199300000000001,-2.5702200000000004,-9.46665
585,-0.5199300000000001,-2.5702200000000004,-9.46665
586,-0.51012,-2.52117,-9.447030000000002
587,-0.51012,-2.52117,-9.447030000000002
588,-0.5199300000000001,-2.5604100000000005,-9.46665
589,-0.5199300000000001,-2.5604100000000005,-9.46665
590,-0.5199300000000001,-2.5604100000000005,-9.46665
591,-0.50031,-2.5505999999999998,-9.45684
592,-0.50031,-2.5505999999999998,-9.45684
593,-0.50031,-2.5505999999999998,-9.46665
594,-0.50031,-2.5505999999999998,-9.46665
595,-0.51012,-2.52117,-9.46665
596,-0.51012,-2.52117,-9.46665
597,-0.51012,-2.52117,-9.46665
598,-0.51012,-2.52117,-9.46665
599,-0.51012,-2.5604100000000005,-9.476460000000001
600,-0.51012,-2.5604100000000005,-9.476460000000001
601,-0.51012,-2.5604100000000005,-9.476460000000001
602,-0.51012,-2.5604100000000005,-9.476460000000001
603,-0.51012,-2.5604100000000005,-9.45684
604,-0.51012,-2.5604100000000005,-9.45684
605,-0.51012,-2.5604100000000005,-9.45684
606,-0.51012,-2.5604100000000005,-9.45684
607,-0.51012,-2.5604100000000005,-9.45684
608,-0.4905,-2.5505999999999998,-9.46665
609,-0.4905,-2.5505999999999998,-9.46665
610,-0.4905,-2.54079,-9.447030000000002
611,-0.4905,-2.54079,-9.447030000000002
612,-0.4905,-2.5604100000000005,-9.476460000000001
613,-0.4905,-2.5604100000000005,-9.476460000000001
614,-0.4905,-2.5604100000000005,-9.476460000000001
615,-0.4905,-2.5604100000000005,-9.476460000000001
616,-0.51012,-2.52117,-9.42741
617,-0.51012,-2.52117,-9.42741
618,-0.4905,-2.53098,-9.46665
619,-0.50031,-2.5800300000000003,-9.476460000000001
620,-0.50031,-2.5800300000000003,-9.476460000000001
621,-0.50031,-2.5800300000000003,-9.476460000000001
622,-0.50031,-2.5604100000000005,-9.45684
623,-0.50031,-2.5604100000000005,-9.45684
624,-0.50031,-2.54079,-9.46665
625,-0.50031,-2.54079,-9.46665
626,-0.50031,-2.54079,-9.46665
627,-0.51012,-2.5702200000000004,-9.476460000000001
628,-0.51012,-2.5702200000000004,-9.476460000000001
629,-0.51012,-2.5604100000000005,-9.46665
630,-0.51012,-2.5604100000000005,-9.46665
631,-0.51012,-2.5604100000000005,-9.46665
632,-0.51012,-2.5604100000000005,-9.46665
633,-0.51012,-2.5604100000000005,-9.46665
634,-0.50031,-2.5505999999999998,-9.45684
635,-0.50031,-2.5505999999999998,-9.45684
636,-0.51012,-2.53098,-9.46665
637,-0.51012,-2.53098,-9.46665
638,-0.51012,-2.53098,-9.46665
639,-0.50031,-2.53098,-9.46665
640,-0.50031,-2.53098,-9.46665
641,-0.50031,-2.52117,-9.486270000000001
642,-0.50031,-2.52117,-9.486270000000001
643,-0.5199300000000001,-2.54079,-9.45684
644,-0.5199300000000001,-2.54079,-9.45684
645,-0.5199300000000001,-2.54079,-9.45684
646,-0.50031,-2.5702200000000004,-9.45684
647,-0.50031,-2.5702200000000004,-9.45684
648,-0.51012,-2.52117,-9.486270000000001
649,-0.51012,-2.52117,-9.486270000000001
650,-0.51012,-2.52117,-9.486270000000001
651,-0.51012,-2.54079,-9.46665
652,-0.51012,-2.54079,-9.46665
653,-0.51012,-2.5604100000000005,-9.45684
654,-0.51012,-2.5604100000000005,-9.45684
655,-0.50031,-2.5505999999999998,-9.45684
656,-0.50031,-2.5505999999999998,-9.45684
657,-0.50031,-2.5505999999999998,-9.45684
658,-0.50031,-2.5505999999999998,-9.45684
659,-0.51012,-2.5505999999999998,-9.46665
660,-0.51012,-2.5505999999999998,-9.46665
661,-0.50031,-2.53098,-9.45684
662,-0.50031,-2.53098,-9.45684
663,-0.4905,-2.54079,-9.447030000000002
664,-0.4905,-2.54079,-9.447030000000002
665,-0.50031,-2.5702200000000004,-9.486270000000001
666,-0.50031,-2.5702200000000004,-9.486270000000001
667,-0.50031,-2.5702200000000004,-9.486270000000001
668,-0.4905,-2.54079,-9.476460000000001
669,-0.4905,-2.54079,-9.476460000000001
670,-0.5199300000000001,-2.54079,-9.476460000000001
671,-0.5199300000000001,-2.54079,-9.476460000000001
672,-0.5199300000000001,-2.54079,-9.476460000000001
673,-0.50031,-2.5505999999999998,-9.46665
674,-0.50031,-2.5505999999999998,-9.46665
675,-0.50031,-2.5702200000000004,-9.476460000000001
676,-0.50031,-2.5702200000000004,-9.476460000000001
677,-0.4905,-2.5800300000000003,-9.447030000000002
678,-0.4905,-2.5800300000000003,-9.447030000000002
679,-0.5199300000000001,-2.53098,-9.46665
680,-0.5199300000000001,-2.53098,-9.46665
681,-0.5199300000000001,-2.53098,-9.46665
682,-0.5199300000000001,-2.53098,-9.46665
683,-0.4905,-2.5505999999999998,-9.46665
684,-0.4905,-2.54079,-9.46665
685,-0.4905,-2.54079,-9.46665
686,-0.4905,-2.54079,-9.46665
687,-0.51012,-2.54079,-9.486270000000001
688,-0.51012,-2.54079,-9.486270000000001
689,-0.50031,-2.54079,-9.46665
690,-0.50031,-2.54079,-9.46665
691,-0.51012,-2.53098,-9.476460000000001
692,-0.51012,-2.53098,-9.476460000000001
693,-0.51012,-2.53098,-9.476460000000001
694,-0.51012,-2.53098,-9.45684
695,-0.51012,-2.53098,-9.45684
696,-0.51012,-2.5505999999999998,-9.486270000000001
697,-0.51012,-2.5505999999999998,-9.486270000000001
698,-0.51012,-2.5505999999999998,-9.486270000000001
699,-0.50031,-2.5604100000000005,-9.45684
700,-0.50031,-2.5604100000000005,-9.45684
701,-0.51012,-2.53098,-9.46665
702,-0.51012,-2.53098,-9.46665
703,-0.51012,-2.53098,-9.46665
704,-0.50031,-2.53098,-9.46665
705,-0.50031,-2.53098,-9.46665
706,-0.48069,-2.53098,-9.45684
707,-0.48069,-2.53098,-9.45684
708,-0.48069,-2.53098,-9.45684
709,-0.5199300000000001,-2.53098,-9.496080000000001
710,-0.5199300000000001,-2.53098,-9.496080000000001
711,-0.50031,-2.5505999999999998,-9.476460000000001
712,-0.50031,-2.5505999999999998,-9.476460000000001
713,-0.50031,-2.54079,-9.486270000000001
714,-0.50031,-2.54079,-9.486270000000001
715,-0.5199300000000001,-2.5505999999999998,-9.46665
716,-0.5199300000000001,-2.5505999999999998,-9.46665
717,-0.5199300000000001,-2.5505999999999998,-9.46665
718,-0.51012,-2.5113600000000003,-9.46665
719,-0.51012,-2.5113600000000003,-9.46665
720,-0.50031,-2.5505999999999998,-9.46665
721,-0.50031,-2.5505999999999998,-9.46665
722,-0.50031,-2.5505999999999998,-9.46665
723,-0.51012,-2.5604100000000005,-9.486270000000001
724,-0.51012,-2.5604100000000005,-9.486270000000001
725,-0.5199300000000001,-2.53098,-9.447030000000002
726,-0.5199300000000001,-2.53098,-9.447030000000002
727,-0.51012,-2.53098,-9.437220000000002
728,-0.51012,-2.53098,-9.437220000000002
729,-0.51012,-2.53098,-9.437220000000002
730,-0.4905,-2.53098,-9.496080000000001
731,-0.4905,-2.53098,-9.496080000000001
732,-0.52974,-2.5604100000000005,-9.437220000000002
733,-0.52974,-2.5604100000000005,-9.437220000000002
734,-0.52974,-2.5604100000000005,-9.437220000000002
735,-0.50031,-2.54079,-9.476460000000001
736,-0.50031,-2.54079,-9.476460000000001
737,-0.4905,-2.5505999999999998,-9.45684
738,-0.4905,-2.5505999999999998,-9.45684
739,-0.50031,-2.54079,-9.45684
740,-0.50031,-2.54079,-9.45684
741,-0.50031,-2.54079,-9.45684
742,-0.5199300000000001,-2.54079,-9.45684
743,-0.5199300000000001,-2.54079,-9.45684
744,-0.50031,-2.5505999999999998,-9.46665
745,-0.50031,-2.5505999999999998,-9.46665
746,-0.50031,-2.5505999999999998,-9.46665
747,-0.51012,-2.53098,-9.496080000000001
748,-0.51012,-2.53098,-9.496080000000001
749,-0.51012,-2.54079,-9.45684
750,-0.51012,-2.54079,-9.45684
751,-0.50031,-2.5604100000000005,-9.46665
752,-0.50031,-2.5604100000000005,-9.46665
753,-0.50031,-2.5604100000000005,-9.46665
754,-0.50031,-2.53098,-9.45684
755,-0.50031,-2.53098,-9.45684
756,-0.50031,-2.53098,-9.45684
757,-0.51012,-2.54079,-9.486270000000001
758,-0.51012,-2.54079,-9.486270000000001
759,-0.51012,-2.54079,-9.486270000000001
760,-0.51012,-2.52117,-9.46665
761,-0.5199300000000001,-2.53098,-9.496080000000001
762,-0.5199300000000001,-2.53098,-9.496080000000001
763,-0.5199300000000001,-2.53098,-9.496080000000001
764,-0.51012,-2.53098,-9.45684
765,-0.51012,-2.53098,-9.45684
766,-0.4905,-2.5505999999999998,-9.46665
767,-0.4905,-2.5505999999999998,-9.46665
768,-0.50031,-2.5505999999999998,-9.476460000000001
769,-0.50031,-2.5505999999999998,-9.476460000000001
770,-0.50031,-2.5505999999999998,-9.476460000000001
771,-0.50031,-2.54079,-9.447030000000002
772,-0.50031,-2.54079,-9.447030000000002
773,-0.51012,-2.54079,-9.476460000000001
774,-0.51012,-2.54079,-9.476460000000001
775,-0.51012,-2.54079,-9.476460000000001
776,-0.51012,-2.54079,-9.486270000000001
777,-0.51012,-2.54079,-9.486270000000001
778,-0.50031,-2.5505999999999998,-9.447030000000002
779,-0.50031,-2.5505999999999998,-9.447030000000002
780,-0.50031,-2.54079,-9.476460000000001
781,-0.50031,-2.54079,-9.476460000000001
782,-0.4905,-2.54079,-9.486270000000001
783,-0.4905,-2.54079,-9.486270000000001
784,-0.4905,-2.54079,-9.486270000000001
785,-0.4905,-2.54079,-9.486270000000001
786,-0.51012,-2.5702200000000004,-9.45684
787,-0.51012,-2.5702200000000004,-9.45684
788,-0.51012,-2.5505999999999998,-9.46665
789,-0.51012,-2.5505999999999998,-9.46665
790,-0.48069,-2.54079,-9.46665
791,-0.48069,-2.54079,-9.46665
792,-0.4905,-2.54079,-9.46665
793,-0.4905,-2.54079,-9.46665
794,-0.4905,-2.54079,-9.46665
795,-0.51012,-2.5702200000000004,-9.45684
796,-0.51012,-2.5702200000000004,-9.45684
797,-0.4905,-2.5604100000000005,-9.42741
798,-0.4905,-2.5604100000000005,-9.42741
799,-0.5199300000000001,-2.52117,-9.46665
800,-0.5199300000000001,-2.52117,-9.46665
801,-0.5199300000000001,-2.52117,-9.46665
802,-0.50031,-2.5604100000000005,-9.476460000000001
803,-0.50031,-2.5604100000000005,-9.476460000000001
804,-0.50031,-2.53098,-9.45684
805,-0.50031,-2.53098,-9.45684
806,-0.50031,-2.53098,-9.45684
807,-0.5199300000000001,-2.5015500000000004,-9.50589
808,-0.5199300000000001,-2.5015500000000004,-9.50589
809,-0.5199300000000001,-2.58984,-9.447030000000002
810,-0.5199300000000001,-2.58984,-9.447030000000002
811,-0.5199300000000001,-2.58984,-9.447030000000002
812,-0.51012,-2.5505999999999998,-9.46665
813,-0.51012,-2.5505999999999998,-9.46665
814,-0.51012,-2.5604100000000005,-9.45684
815,-0.51012,-2.5604100000000005,-9.45684
816,-0.5199300000000001,-2.54079,-9.46665
817,-0.5199300000000001,-2.54079,-9.46665
818,-0.5199300000000001,-2.54079,-9.46665
819,-0.5199300000000001,-2.54079,-9.46665
820,-0.50031,-2.5702200000000004,-9.45684
821,-0.50031,-2.52117,-9.46665
822,-0.50031,-2.52117,-9.46665
823,-0.51012,-2.5604100000000005,-9.45684
824,-0.51012,-2.5604100000000005,-9.45684
825,-0.51012,-2.5604100000000005,-9.45684
826,-0.5199300000000001,-2.5604100000000005,-9.496080000000001
827,-0.5199300000000001,-2.5604100000000005,-9.496080000000001
828,-0.5199300000000001,-2.5604100000000005,-9.496080000000001
829,-0.51012,-2.52117,-9.486270000000001
830,-0.51012,-2.52117,-9.486270000000001
831,-0.51012,-2.5113600000000003,-9.486270000000001
832,-0.51012,-2.5113600000000003,-9.486270000000001
833,-0.51012,-2.53098,-9.496080000000001
834,-0.51012,-2.53098,-9.496080000000001
835,-0.50031,-2.54079,-9.45684
836,-0.50031,-2.54079,-9.45684
837,-0.50031,-2.54079,-9.45684
838,-0.50031,-2.5702200000000004,-9.45684
839,-0.50031,-2.5702200000000004,-9.45684
840,-0.51012,-2.5505999999999998,-9.46665
841,-0.51012,-2.5505999999999998,-9.46665
842,-0.51012,-2.5505999999999998,-9.46665
843,-0.51012,-2.54079,-9.486270000000001
844,-0.51012,-2.54079,-9.486270000000001
845,-0.50031,-2.5604100000000005,-9.45684
846,-0.50031,-2.5604100000000005,-9.45684
847,-0.4905,-2.5113600000000003,-9.50589
848,-0.4905,-2.5113600000000003,-9.50589
849,-0.4905,-2.5113600000000003,-9.50589
850,-0.50031,-2.54079,-9.486270000000001
851,-0.50031,-2.54079,-9.486270000000001
852,-0.50031,-2.54079,-9.486270000000001
853,-0.5199300000000001,-2.5702200000000004,-9.486270000000001
854,-0.5199300000000001,-2.5702200000000004,-9.486270000000001
855,-0.50031,-2.53098,-9.476460000000001
856,-0.50031,-2.53098,-9.476460000000001
857,-0.51012,-2.53098,-9.45684
858,-0.51012,-2.53098,-9.45684
859,-0.51012,-2.53098,-9.45684
860,-0.4905,-2.5505999999999998,-9.447030000000002
861,-0.4905,-2.5505999999999998,-9.447030000000002
862,-0.50031,-2.5505999999999998,-9.437220000000002
863,-0.50031,-2.5505999999999998,-9.437220000000002
864,-0.4905,-2.54079,-9.45684
865,-0.4905,-2.54079,-9.45684
866,-0.4905,-2.54079,-9.45684
867,-0.4905,-2.54079,-9.486270000000001
868,-0.4905,-2.54079,-9.486270000000001
869,-0.50031,-2.59965,-9.46665
870,-0.50031,-2.59965,-9.46665
871,-0.50031,-2.59965,-9.46665
872,-0.4905,-2.5800300000000003,-9.447030000000002
873,-0.4905,-2.5800300000000003,-9.447030000000002
874,-0.51012,-2.5505999999999998,-9.476460000000001
875,-0.51012,-2.5505999999999998,-9.476460000000001
876,-0.51012,-2.5113600000000003,-9.486270000000001
877,-0.51012,-2.5113600000000003,-9.486270000000001
878,-0.51012,-2.5113600000000003,-9.486270000000001
879,-0.4905,-2.58984,-9.476460000000001
880,-0.4905,-2.58984,-9.476460000000001
881,-0.51012,-2.5505999999999998,-9.46665
882,-0.51012,-2.5505999999999998,-9.46665
883,-0.51012,-2.5505999999999998,-9.46665
884,-0.50031,-2.4917400000000005,-9.496080000000001
885,-0.50031,-2.4917400000000005,-9.496080000000001
886,-0.51012,-2.5113600000000003,-9.46665
887,-0.51012,-2.5113600000000003,-9.46665
888,-0.51012,-2.5702200000000004,-9.46665
889,-0.51012,-2.5702200000000004,-9.46665
890,-0.51012,-2.5702200000000004,-9.46665
891,-0.50031,-2.4917400000000005,-9.46665
892,-0.50031,-2.4917400000000005,-9.46665
893,-0.5199300000000001,-2.52117,-9.46665
894,-0.5199300000000001,-2.52117,-9.46665
895,-0.5199300000000001,-2.52117,-9.46665
896,-0.5199300000000001,-2.54079,-9.46665
897,-0.5199300000000001,-2.54079,-9.46665
898,-0.51012,-2.5505999999999998,-9.476460000000001
899,-0.51012,-2.5505999999999998,-9.476460000000001
900,-0.50031,-2.5604100000000005,-9.46665
901,-0.50031,-2.5604100000000005,-9.46665
902,-0.50031,-2.5604100000000005,-9.46665
903,-0.50031,-2.52117,-9.476460000000001
904,-0.50031,-2.52117,-9.476460000000001
905,-0.50031,-2.5702200000000004,-9.476460000000001
906,-0.50031,-2.5702200000000004,-9.476460000000001
907,-0.50031,-2.53098,-9.486270000000001
908,-0.50031,-2.53098,-9.486270000000001
909,-0.50031,-2.53098,-9.486270000000001
910,-0.51012,-2.5702200000000004,-9.46665
911,-0.51012,-2.5702200000000004,-9.46665
912,-0.50031,-2.60946,-9.45684
913,-0.50031,-2.60946,-9.45684
914,-0.50031,-2.60946,-9.45684
915,-0.51012,-2.54079,-9.476460000000001
916,-0.51012,-2.54079,-9.476460000000001
917,-0.4905,-2.5604100000000005,-9.476460000000001
918,-0.4905,-2.5604100000000005,-9.476460000000001
919,-0.51012,-2.54079,-9.447030000000002
920,-0.51012,-2.54079,-9.447030000000002
921,-0.51012,-2.54079,-9.447030000000002
922,-0.51012,-2.54079,-9.447030000000002
923,-0.4905,-2.5702200000000004,-9.476460000000001
924,-0.50031,-2.5800300000000003,-9.476460000000001
925,-0.50031,-2.5800300000000003,-9.476460000000001
926,-0.50031,-2.5800300000000003,-9.476460000000001
927,-0.51012,-2.52117,-9.46665
928,-0.51012,-2.52117,-9.46665
929,-0.50031,-2.5505999999999998,-9.46665
930,-0.50031,-2.5505999999999998,-9.46665
931,-0.50031,-2.5505999999999998,-9.46665
932,-0.51012,-2.54079,-9.45684
933,-0.51012,-2.54079,-9.45684
934,-0.50031,-2.5800300000000003,-9.447030000000002
935,-0.50031,-2.5800300000000003,-9.447030000000002
936,-0.50031,-2.5800300000000003,-9.447030000000002
937,-0.50031,-2.53098,-9.476460000000001
938,-0.50031,-2.53098,-9.476460000000001
939,-0.50031,-2.53098,-9.476460000000001
940,-0.50031,-2.5505999999999998,-9.46665
941,-0.51012,-2.54079,-9.486270000000001
942,-0.51012,-2.54079,-9.486270000000001
943,-0.51012,-2.54079,-9.486270000000001
944,-0.51012,-2.54079,-9.46665
945,-0.51012,-2.54079,-9.46665
946,-0.51012,-2.54079,-9.46665
947,-0.51012,-2.5113600000000003,-9.45684
948,-0.5199300000000001,-2.5604100000000005,-9.476460000000001
949,-0.5199300000000001,-2.5604100000000005,-9.476460000000001
950,-0.5199300000000001,-2.5604100000000005,-9.476460000000001
951,-0.5199300000000001,-2.54079,-9.46665
952,-0.5199300000000001,-2.54079,-9.46665
953,-0.51012,-2.52117,-9.486270000000001
954,-0.51012,-2.52117,-9.486270000000001
955,-0.50031,-2.53098,-9.486270000000001
956,-0.50031,-2.53098,-9.486270000000001
957,-0.50031,-2.53098,-9.486270000000001
958,-0.51012,-2.54079,-9.486270000000001
959,-0.51012,-2.54079,-9.486270000000001
960,-0.51012,-2.5702200000000004,-9.46665
961,-0.51012,-2.5702200000000004,-9.46665
962,-0.50031,-2.5505999999999998,-9.45684
963,-0.50031,-2.5505999999999998,-9.45684
964,-0.50031,-2.5505999999999998,-9.45684
965,-0.51012,-2.5113600000000003,-9.476460000000001
966,-0.51012,-2.5113600000000003,-9.476460000000001
967,-0.51012,-2.5113600000000003,-9.476460000000001
968,-0.5199300000000001,-2.54079,-9.46665
969,-0.5199300000000001,-2.54079,-9.46665
970,-0.50031,-2.54079,-9.476460000000001
971,-0.50031,-2.54079,-9.476460000000001
972,-0.4905,-2.53098,-9.476460000000001
973,-0.4905,-2.53098,-9.476460000000001
974,-0.4905,-2.53098,-9.476460000000001
975,-0.50031,-2.52117,-9.486270000000001
976,-0.50031,-2.52117,-9.486270000000001
977,-0.51012,-2.5604100000000005,-9.486270000000001
978,-0.51012,-2.5604100000000005,-9.486270000000001
979,-0.51012,-2.5604100000000005,-9.486270000000001
980,-0.51012,-2.5604100000000005,-9.486270000000001
981,-0.51012,-2.5604100000000005,-9.486270000000001
982,-0.51012,-2.5604100000000005,-9.486270000000001
983,-0.51012,-2.5604100000000005,-9.486270000000001
984,-0.51012,-2.54079,-9.476460000000001
985,-0.51012,-2.54079,-9.476460000000001
986,-0.51012,-2.54079,-9.476460000000001
987,-0.50031,-2.53098,-9.46665
988,-0.50031,-2.53098,-9.46665
989,-0.50031,-2.53098,-9.46665
990,-0.50031,-2.53098,-9.46665
991,-0.50031,-2.53098,-9.46665
992,-0.48069,-2.54079,-9.496080000000001
993,-0.48069,-2.54079,-9.496080000000001
994,-0.48069,-2.54079,-9.496080000000001
995,-0.48069,-2.54079,-9.496080000000001
996,-0.48069,-2.54079,-9.496080000000001
997,-0.51012,-2.53098,-9.50589
998,-0.51012,-2.53098,-9.50589
999,-0.51012,-2.53098,-9.50589
1000,-0.51012,-2.53098,-9.50589
1001,-0.51012,-2.53098,-9.50589
1002,-0.50031,-2.54079,-9.476460000000001
1003,-0.50031,-2.54079,-9.476460000000001
1004,-0.50031,-2.54079,-9.476460000000001
1005,-0.50031,-2.54079,-9.476460000000001
1006,-0.50031,-2.54079,-9.476460000000001
1007,-0.50031,-2.54079,-9.45684
1008,-0.50031,-2.54079,-9.45684
1009,-0.50031,-2.54079,-9.45684
1010,-0.50031,-2.54079,-9.45684
1011,-0.50031,-2.54079,-9.45684
1012,-0.50031,-2.54079,-9.447030000000002
1013,-0.50031,-2.54079,-9.447030000000002
1014,-0.50031,-2.54079,-9.447030000000002
1015,-0.50031,-2.54079,-9.447030000000002
1016,-0.50031,-2.54079,-9.447030000000002
1017,-0.51012,-2.5505999999999998,-9.486270000000001
1018,-0.51012,-2.5505999999999998,-9.486270000000001
1019,-0.51012,-2.5505999999999998,-9.486270000000001
1020,-0.51012,-2.5505999999999998,-9.486270000000001
1021,-0.51012,-2.5505999999999998,-9.486270000000001
1022,-0.50031,-2.54079,-9.486270000000001
1023,-0.50031,-2.54079,-9.486270000000001
1024,-0.50031,-2.54079,-9.486270000000001
1025,-0.50031,-2.54079,-9.486270000000001
1026,-0.50031,-2.54079,-9.486270000000001
1027,-0.51012,-2.54079,-9.486270000000001
1028,-0.51012,-2.54079,-9.486270000000001
1029,-0.51012,-2.54079,-9.486270000000001
1030,-0.51012,-2.54079,-9.486270000000001
1031,-0.51012,-2.54079,-9.486270000000001
1032,-0.50031,-2.54079,-9.476460000000001
1033,-0.50031,-2.54079,-9.476460000000001
1034,-0.50031,-2.54079,-9.476460000000001
1035,-0.50031,-2.54079,-9.476460000000001
1036,-0.50031,-2.54079,-9.476460000000001
1037,-0.50031,-2.54079,-9.486270000000001
1038,-0.50031,-2.54079,-9.486270000000001
1039,-0.50031,-2.54079,-9.486270000000001
1040,-0.50031,-2.54079,-9.486270000000001
1041,-0.50031,-2.54079,-9.486270000000001
1042,-0.4905,-2.54079,-9.46665
1043,-0.4905,-2.54079,-9.46665
1044,-0.4905,-2.54079,-9.46665
1045,-0.4905,-2.54079,-9.46665
1046,-0.4905,-2.54079,-9.46665
1047,-0.50031,-2.54079,-9.45684
1048,-0.50031,-2.54079,-9.45684
1049,-0.50031,-2.54079,-9.45684
1050,-0.50031,-2.54079,-9.45684
1051,-0.50031,-2.54079,-9.45684
1052,-0.51012,-2.54079,-9.46665
1053,-0.51012,-2.54079,-9.46665
1054,-0.51012,-2.54079,-9.46665
1055,-0.51012,-2.54079,-9.46665
1056,-0.51012,-2.54079,-9.46665
1057,-0.5199300000000001,-2.53098,-9.486270000000001
1058,-0.5199300000000001,-2.53098,-9.486270000000001
1059,-0.50031,-2.53098,-9.46665
1060,-0.50031,-2.53098,-9.46665
1061,-0.50031,-2.53098,-9.46665
1062,-0.50031,-2.53098,-9.46665
1063,-0.50031,-2.53098,-9.46665
1064,-0.51012,-2.5505999999999998,-9.46665
1065,-0.51012,-2.5505999999999998,-9.46665
1066,-0.51012,-2.5505999999999998,-9.46665
1067,-0.51012,-2.54079,-9.476460000000001
1068,-0.51012,-2.54079,-9.476460000000001
1069,-0.51012,-2.53098,-9.486270000000001
1070,-0.51012,-2.53098,-9.486270000000001
1071,-0.51012,-2.53098,-9.486270000000001
1072,-0.50031,-2.54079,-9.476460000000001
1073,-0.50031,-2.54079,-9.476460000000001
1074,-0.5199300000000001,-2.5505999999999998,-9.45684
1075,-0.5199300000000001,-2.5505999999999998,-9.45684
1076,-0.50031,-2.54079,-9.486270000000001
1077,-0.50031,-2.54079,-9.486270000000001
1078,-0.50031,-2.54079,-9.486270000000001
1079,-0.51012,-2.52117,-9.486270000000001
1080,-0.51012,-2.52117,-9.486270000000001
1081,-0.4905,-2.53098,-9.437220000000002
1082,-0.4905,-2.53098,-9.437220000000002
1083,-0.4905,-2.53098,-9.437220000000002
1084,-0.51012,-2.5505999999999998,-9.486270000000001
1085,-0.51012,-2.5505999999999998,-9.486270000000001
1086,-0.51012,-2.5505999999999998,-9.486270000000001
1087,-0.50031,-2.54079,-9.46665
1088,-0.50031,-2.54079,-9.46665
1089,-0.51012,-2.54079,-9.476460000000001
1090,-0.51012,-2.54079,-9.476460000000001
1091,-0.50031,-2.5505999999999998,-9.486270000000001
1092,-0.50031,-2.5505999999999998,-9.486270000000001
1093,-0.51012,-2.52117,-9.45684
1094,-0.51012,-2.52117,-9.45684
1095,-0.51012,-2.52117,-9.45684
1096,-0.50031,-2.54079,-9.476460000000001
1097,-0.50031,-2.54079,-9.476460000000001
1098,-0.50031,-2.54079,-9.496080000000001
1099,-0.50031,-2.54079,-9.496080000000001
1100,-0.4905,-2.5505999999999998,-9.46665
1101,-0.4905,-2.5505999999999998,-9.46665
1102,-0.4905,-2.5505999999999998,-9.46665
1103,-0.51012,-2.5505999999999998,-9.496080000000001
1104,-0.51012,-2.5505999999999998,-9.496080000000001
1105,-0.51012,-2.54079,-9.46665
1106,-0.51012,-2.54079,-9.46665
1107,-0.50031,-2.53098,-9.476460000000001
1108,-0.50031,-2.53098,-9.476460000000001
1109,-0.50031,-2.53098,-9.476460000000001
1110,-0.51012,-2.54079,-9.46665
1111,-0.51012,-2.54079,-9.46665
1112,-0.51012,-2.54079,-9.447030000000002
1113,-0.51012,-2.54079,-9.447030000000002
1114,-0.51012,-2.54079,-9.447030000000002
1115,-0.4905,-2.5505999999999998,-9.476460000000001
1116,-0.4905,-2.5505999999999998,-9.476460000000001
1117,-0.50031,-2.54079,-9.46665
1118,-0.50031,-2.54079,-9.46665
1119,-0.50031,-2.54079,-9.46665
1120,-0.50031,-2.5505999999999998,-9.46665
1121,-0.50031,-2.5505999999999998,-9.46665
1122,-0.50031,-2.5505999999999998,-9.46665
1123,-0.50031,-2.5505999999999998,-9.46665
1124,-0.50031,-2.52117,-9.496080000000001
1125,-0.50031,-2.52117,-9.496080000000001
1126,-0.50031,-2.52117,-9.496080000000001
1127,-0.50031,-2.5604100000000005,-9.46665
1128,-0.50031,-2.5604100000000005,-9.46665
1129,-0.51012,-2.54079,-9.45684
1130,-0.51012,-2.54079,-9.45684
1131,-0.51012,-2.54079,-9.45684
1132,-0.50031,-2.53098,-9.476460000000001
1133,-0.50031,-2.53098,-9.476460000000001
1134,-0.5199300000000001,-2.5505999999999998,-9.46665
1135,-0.5199300000000001,-2.5505999999999998,-9.46665
1136,-0.4905,-2.5505999999999998,-9.46665
1137,-0.4905,-2.5505999999999998,-9.46665
1138,-0.4905,-2.5505999999999998,-9.46665
1139,-0.50031,-2.54079,-9.476460000000001
1140,-0.50031,-2.54079,-9.476460000000001
1141,-0.50031,-2.54079,-9.476460000000001
1142,-0.4905,-2.53098,-9.45684
1143,-0.51012,-2.5505999999999998,-9.496080000000001
1144,-0.51012,-2.5505999999999998,-9.496080000000001
1145,-0.51012,-2.5505999999999998,-9.496080000000001
1146,-0.51012,-2.54079,-9.46665
1147,-0.51012,-2.54079,-9.46665
1148,-0.51012,-2.54079,-9.46665
1149,-0.50031,-2.53098,-9.476460000000001
1150,-0.50031,-2.53098,-9.476460000000001
1151,-0.50031,-2.53098,-9.476460000000001
1152,-0.4905,-2.54079,-9.476460000000001
1153,-0.4905,-2.54079,-9.447030000000002
1154,-0.4905,-2.54079,-9.447030000000002
1155,-0.52974,-2.5505999999999998,-9.476460000000001
1156,-0.52974,-2.5505999999999998,-9.476460000000001
1157,-0.52974,-2.5505999999999998,-9.476460000000001
1158,-0.4905,-2.54079,-9.46665
1159,-0.4905,-2.54079,-9.46665
1160,-0.50031,-2.5113600000000003,-9.486270000000001
1161,-0.50031,-2.5113600000000003,-9.486270000000001
1162,-0.50031,-2.5113600000000003,-9.486270000000001
1163,-0.50031,-2.54079,-9.486270000000001
1164,-0.50031,-2.54079,-9.486270000000001
1165,-0.50031,-2.54079,-9.46665
1166,-0.50031,-2.54079,-9.46665
1167,-0.51012,-2.5505999999999998,-9.46665
1168,-0.51012,-2.5505999999999998,-9.46665
1169,-0.51012,-2.5505999999999998,-9.46665
1170,-0.4905,-2.53098,-9.45684
1171,-0.4905,-2.53098,-9.45684
1172,-0.4905,-2.53098,-9.45684
1173,-0.51012,-2.53098,-9.476460000000001
1174,-0.51012,-2.54079,-9.45684
1175,-0.51012,-2.54079,-9.45684
1176,-0.51012,-2.54079,-9.45684
1177,-0.4905,-2.52117,-9.46665
1178,-0.4905,-2.52117,-9.46665
1179,-0.51012,-2.5505999999999998,-9.45684
1180,-0.51012,-2.5505999999999998,-9.45684
1181,-0.51012,-2.5505999999999998,-9.45684
1182,-0.50031,-2.52117,-9.496080000000001
1183,-0.50031,-2.52117,-9.496080000000001
1184,-0.50031,-2.52117,-9.496080000000001
1185,-0.4905,-2.54079,-9.45684
1186,-0.4905,-2.54079,-9.45684
1187,-0.50031,-2.54079,-9.476460000000001
1188,-0.50031,-2.54079,-9.476460000000001
1189,-0.50031,-2.54079,-9.45684
1190,-0.50031,-2.54079,-9.45684
1191,-0.51012,-2.5113600000000003,-9.50589
1192,-0.51012,-2.5113600000000003,-9.50589
1193,-0.51012,-2.5113600000000003,-9.50589
1194,-0.50031,-2.54079,-9.476460000000001
1195,-0.50031,-2.54079,-9.476460000000001
1196,-0.50031,-2.5505999999999998,-9.46665
1197,-0.50031,-2.5505999999999998,-9.46665
1198,-0.50031,-2.5505999999999998,-9.46665
1199,-0.51012,-2.5505999999999998,-9.476460000000001
1200,-0.51012,-2.5505999999999998,-9.476460000000001
1201,-0.50031,-2.5604100000000005,-9.46665
1202,-0.50031,-2.5604100000000005,-9.46665
1203,-0.50031,-2.5604100000000005,-9.46665
1204,-0.50031,-2.54079,-9.46665
1205,-0.50031,-2.54079,-9.46665
1206,-0.50031,-2.5505999999999998,-9.476460000000001
1207,-0.50031,-2.5505999999999998,-9.476460000000001
1208,-0.51012,-2.5505999999999998,-9.46665
1209,-0.51012,-2.5505999999999998,-9.46665
1210,-0.51012,-2.5505999999999998,-9.46665
1211,-0.50031,-2.52117,-9.476460000000001
1212,-0.50031,-2.52117,-9.476460000000001
1213,-0.50031,-2.52117,-9.476460000000001
1214,-0.51012,-2.54079,-9.45684
1215,-0.51012,-2.54079,-9.45684
1216,-0.4905,-2.53098,-9.476460000000001
1217,-0.4905,-2.53098,-9.476460000000001
1218,-0.50031,-2.5505999999999998,-9.46665
1219,-0.50031,-2.5505999999999998,-9.46665
1220,-0.50031,-2.54079,-9.46665
1221,-0.50031,-2.54079,-9.46665
1222,-0.50031,-2.54079,-9.46665
1223,-0.51012,-2.53098,-9.486270000000001
1224,-0.51012,-2.53098,-9.486270000000001
1225,-0.51012,-2.53098,-9.486270000000001
1226,-0.50031,-2.5604100000000005,-9.46665
1227,-0.50031,-2.5604100000000005,-9.46665
1228,-0.50031,-2.54079,-9.476460000000001
1229,-0.50031,-2.54079,-9.476460000000001
1230,-0.4905,-2.5505999999999998,-9.476460000000001
1231,-0.4905,-2.5505999999999998,-9.476460000000001
1232,-0.48069,-2.5505999999999998,-9.45684
1233,-0.48069,-2.5505999999999998,-9.45684
1234,-0.48069,-2.5505999999999998,-9.45684
1235,-0.51012,-2.54079,-9.476460000000001
1236,-0.51012,-2.54079,-9.476460000000001
1237,-0.51012,-2.54079,-9.46665
1238,-0.51012,-2.54079,-9.46665
1239,-0.51012,-2.53098,-9.476460000000001
1240,-0.51012,-2.53098,-9.476460000000001
1241,-0.51012,-2.53098,-9.476460000000001
1242,-0.51012,-2.53098,-9.46665
1243,-0.51012,-2.53098,-9.46665
1244,-0.51012,-2.53098,-9.46665
1245,-0.51012,-2.54079,-9.46665
1246,-0.51012,-2.53098,-9.46665
1247,-0.51012,-2.53098,-9.46665
1248,-0.51012,-2.53098,-9.46665
1249,-0.51012,-2.54079,-9.476460000000001
1250,-0.51012,-2.54079,-9.476460000000001
1251,-0.51012,-2.54079,-9.476460000000001
1252,-0.50031,-2.54079,-9.486270000000001
1253,-0.50031,-2.54079,-9.486270000000001
1254,-0.4905,-2.54079,-9.46665
1255,-0.4905,-2.54079,-9.46665
1256,-0.4905,-2.54079,-9.46665
1257,-0.51012,-2.54079,-9.486270000000001
1258,-0.50031,-2.5505999999999998,-9.45684
1259,-0.50031,-2.5505999999999998,-9.45684
1260,-0.50031,-2.5505999999999998,-9.45684
1261,-0.50031,-2.5505999999999998,-9.447030000000002
1262,-0.50031,-2.5505999999999998,-9.447030000000002
1263,-0.50031,-2.5604100000000005,-9.46665
1264,-0.50031,-2.5604100000000005,-9.46665
1265,-0.50031,-2.5604100000000005,-9.46665
1266,-0.50031,-2.53098,-9.45684
1267,-0.50031,-2.53098,-9.45684
1268,-0.50031,-2.53098,-9.45684
1269,-0.50031,-2.53098,-9.45684
1270,-0.5199300000000001,-2.52117,-9.476460000000001
1271,-0.5199300000000001,-2.52117,-9.476460000000001
1272,-0.5199300000000001,-2.52117,-9.476460000000001
1273,-0.51012,-2.53098,-9.476460000000001
1274,-0.51012,-2.53098,-9.476460000000001
1275,-0.51012,-2.53098,-9.476460000000001
1276,-0.50031,-2.53098,-9.476460000000001
1277,-0.50031,-2.53098,-9.476460000000001
1278,-0.50031,-2.54079,-9.447030000000002
1279,-0.50031,-2.54079,-9.447030000000002
1280,-0.50031,-2.5604100000000005,-9.46665
1281,-0.50031,-2.5604100000000005,-9.46665
1282,-0.50031,-2.5604100000000005,-9.46665
1283,-0.51012,-2.5604100000000005,-9.486270000000001
1284,-0.51012,-2.5604100000000005,-9.486270000000001
1285,-0.50031,-2.5604100000000005,-9.486270000000001
1286,-0.50031,-2.5604100000000005,-9.486270000000001
1287,-0.50031,-2.5604100000000005,-9.486270000000001
1288,-0.4905,-2.53098,-9.486270000000001
1289,-0.4905,-2.53098,-9.486270000000001
1290,-0.4905,-2.52117,-9.486270000000001
1291,-0.4905,-2.52117,-9.486270000000001
1292,-0.51012,-2.54079,-9.46665
1293,-0.51012,-2.54079,-9.46665
1294,-0.51012,-2.54079,-9.46665
1295,-0.4905,-2.62908,-9.46665
1296,-0.4905,-2.62908,-9.46665
1297,-0.51012,-2.53098,-9.45684
1298,-0.51012,-2.53098,-9.45684
1299,-0.51012,-2.52117,-9.447030000000002
1300,-0.51012,-2.52117,-9.447030000000002
1301,-0.51012,-2.52117,-9.447030000000002
1302,-0.50031,-2.54079,-9.447030000000002
1303,-0.50031,-2.54079,-9.447030000000002
1304,-0.50031,-2.54079,-9.447030000000002
1305,-0.51012,-2.5015500000000004,-9.437220000000002
1306,-0.51012,-2.5015500000000004,-9.437220000000002
1307,-0.51012,-2.54079,-9.496080000000001
1308,-0.51012,-2.54079,-9.496080000000001
1309,-0.51012,-2.5604100000000005,-9.46665
1310,-0.51012,-2.5604100000000005,-9.46665
1311,-0.5199300000000001,-2.5113600000000003,-9.476460000000001
1312,-0.5199300000000001,-2.5113600000000003,-9.476460000000001
1313,-0.5199300000000001,-2.5113600000000003,-9.476460000000001
1314,-0.51012,-2.52117,-9.486270000000001
1315,-0.51012,-2.52117,-9.486270000000001
1316,-0.51012,-2.52117,-9.486270000000001
1317,-0.5199300000000001,-2.53098,-9.46665
1318,-0.5199300000000001,-2.53098,-9.46665
1319,-0.52974,-2.52117,-9.45684
1320,-0.52974,-2.52117,-9.45684
1321,-0.4905,-2.5505999999999998,-9.437220000000002
1322,-0.4905,-2.5505999999999998,-9.437220000000002
1323,-0.4905,-2.5505999999999998,-9.437220000000002
1324,-0.4905,-2.5800300000000003,-9.45684
1325,-0.4905,-2.5800300000000003,-9.45684
1326,-0.50031,-2.5505999999999998,-9.46665
1327,-0.50031,-2.5505999999999998,-9.46665
1328,-0.50031,-2.5604100000000005,-9.45684
1329,-0.50031,-2.5604100000000005,-9.45684
1330,-0.50031,-2.5604100000000005,-9.45684
1331,-0.46107000000000004,-2.6388900000000004,-9.329310000000001
1332,-0.46107000000000004,-2.6388900000000004,-9.329310000000001
1333,-0.51012,-2.48193,-9.476460000000001
1334,-0.51012,-2.48193,-9.476460000000001
1335,-0.52974,-2.36421,-9.45684
1336,-0.52974,-2.36421,-9.45684
1337,-0.52974,-2.36421,-9.45684
1338,-0.52974,-2.4034500000000003,-9.496080000000001
1339,-0.52974,-2.4034500000000003,-9.496080000000001
1340,-0.52974,-2.4034500000000003,-9.496080000000001
1341,-0.52974,-2.4328800000000004,-9.486270000000001
1342,-0.52974,-2.4328800000000004,-9.486270000000001
1343,-0.50031,-2.60946,-9.46665
1344,-0.50031,-2.60946,-9.46665
1345,-0.50031,-2.60946,-9.46665
1346,-0.50031,-2.60946,-9.46665
1347,-0.50031,-2.60946,-9.46665
1348,-0.5199300000000001,-2.4034500000000003,-9.50589
1349,-0.5199300000000001,-2.4034500000000003,-9.50589
1350,-0.50031,-2.58984,-9.447030000000002
1351,-0.50031,-2.58984,-9.447030000000002
1352,-0.50031,-2.5604100000000005,-9.437220000000002
1353,-0.50031,-2.5604100000000005,-9.437220000000002
1354,-0.50031,-2.5604100000000005,-9.437220000000002
1355,-0.50031,-2.53098,-9.486270000000001
1356,-0.50031,-2.53098,-9.486270000000001
1357,-0.50031,-2.53098,-9.486270000000001
1358,-0.48069,-2.58984,-9.476460000000001
1359,-0.51012,-2.5505999999999998,-9.486270000000001
1360,-0.51012,-2.5505999999999998,-9.486270000000001
1361,-0.51012,-2.5505999999999998,-9.486270000000001
1362,-0.5199300000000001,-2.5800300000000003,-9.45684
1363,-0.5199300000000001,-2.5800300000000003,-9.45684
1364,-0.5199300000000001,-2.5800300000000003,-9.45684
1365,-0.4905,-2.5505999999999998,-9.46665
1366,-0.4905,-2.5505999999999998,-9.46665
1367,-0.4905,-2.46231,-9.496080000000001
1368,-0.4905,-2.46231,-9.496080000000001
1369,-0.52974,-2.7369900000000005,-9.46665
1370,-0.52974,-2.7369900000000005,-9.46665
1371,-0.52974,-2.7369900000000005,-9.46665
1372,-0.4905,-2.4721200000000003,-9.45684
1373,-0.4905,-2.4721200000000003,-9.45684
1374,-0.50031,-2.4721200000000003,-9.496080000000001
1375,-0.50031,-2.4721200000000003,-9.496080000000001
1376,-0.50031,-2.4721200000000003,-9.496080000000001
1377,-0.5199300000000001,-2.6487000000000003,-9.437220000000002
1378,-0.5787900000000001,-2.7958500000000006,-9.437220000000002
1379,-0.5787900000000001,-2.7958500000000006,-9.437220000000002
1380,-0.5787900000000001,-2.7958500000000006,-9.437220000000002
1381,-0.04905,-2.4721200000000003,-9.74133
1382,-0.04905,-2.4721200000000003,-9.74133
1383,-0.56898,-2.2661100000000003,-9.46665
1384,-0.56898,-2.2661100000000003,-9.46665
1385,-0.56898,-2.2661100000000003,-9.46665
1386,-0.5493600000000001,-2.29554,-9.50589
1387,-0.5493600000000001,-2.29554,-9.50589
1388,-0.5493600000000001,-2.29554,-9.50589
1389,-0.52974,-2.36421,-9.496080000000001
1390,-0.52974,-2.36421,-9.496080000000001
1391,0.46107000000000004,-2.3544,-9.613800000000001
1392,0.46107000000000004,-2.3544,-9.613800000000001
1393,-0.5591700000000001,-2.5800300000000003,-9.447030000000002
1394,-0.5591700000000001,-2.5800300000000003,-9.447030000000002
1395,-0.5591700000000001,-2.5800300000000003,-9.447030000000002
1396,-0.5395500000000001,-2.54079,-9.45684
1397,-0.5395500000000001,-2.54079,-9.45684
1398,0.05886,-2.06991,-10.800810000000002
1399,0.05886,-2.06991,-10.800810000000002
1400,-0.27468000000000004,-2.13858,-10.47708
1401,-0.27468000000000004,-2.13858,-10.47708
1402,-0.27468000000000004,-2.13858,-10.47708
1403,1.4616900000000002,-1.03005,-10.172970000000001
1404,1.4616900000000002,-1.03005,-10.172970000000001
1405,1.9325700000000001,-0.10791000000000002,-8.887860000000002
1406,1.9325700000000001,-0.10791000000000002,-8.887860000000002
1407,1.9325700000000001,-0.10791000000000002,-8.887860000000002
1408,2.7468000000000004,0.5199300000000001,-8.789760000000001
1409,2.7468000000000004,0.5199300000000001,-8.789760000000001
1410,3.00186,0.40221000000000007,-9.45684
1411,3.00186,0.40221000000000007,-9.45684
1412,3.00186,0.40221000000000007,-9.45684
1413,2.0208600000000003,-0.15696000000000002,-9.65304
1414,2.0208600000000003,-0.15696000000000002,-9.65304
1415,0.79461,-0.4905,-9.584370000000002
1416,0.79461,-0.4905,-9.584370000000002
1417,0.14715,-1.14777,-9.397980000000002
1418,0.14715,-1.14777,-9.397980000000002
1419,0.02943,-0.8436600000000001,-9.54513
1420,0.02943,-0.8436600000000001,-9.54513
1421,0.02943,-0.8436600000000001,-9.54513
1422,0.50031,-0.75537,-9.574560000000002
1423,0.50031,-0.75537,-9.574560000000002
1424,0.981,-0.7063200000000001,-9.84924
1425,0.981,-0.7063200000000001,-9.84924
1426,0.981,-0.7063200000000001,-9.84924
1427,1.0104300000000002,-1.4813100000000001,-9.83943
1428,1.0104300000000002,-1.4813100000000001,-9.83943
1429,1.0104300000000002,-1.4813100000000001,-9.83943
1430,1.22625,-1.6186500000000001,-9.52551
1431,1.22625,-1.6186500000000001,-9.52551
1432,1.6088400000000003,-1.0398600000000002,-9.751140000000001
1433,1.6088400000000003,-1.0398600000000002,-9.751140000000001
1434,1.3734000000000002,-1.10853,-9.721710000000002
1435,1.3734000000000002,-1.10853,-9.721710000000002
1436,1.02024,-1.1772,-9.613800000000001
1437,1.02024,-1.1772,-9.613800000000001
1438,1.02024,-1.1772,-9.613800000000001
1439,1.0398600000000002,-0.9123300000000001,-9.67266
1440,1.0398600000000002,-0.9123300000000001,-9.67266
1441,0.9319500000000001,-0.44145000000000006,-9.721710000000002
1442,0.9319500000000001,-0.44145000000000006,-9.721710000000002
1443,1.2164400000000002,-0.30411000000000005,-9.46665
1444,1.2164400000000002,-0.30411000000000005,-9.46665
1445,1.2164400000000002,-0.30411000000000005,-9.46665
1446,0.95157,-0.52974,-8.770140000000001
1447,0.95157,-0.52974,-8.770140000000001
1448,0.95157,-0.52974,-8.770140000000001
1449,1.6971300000000002,-0.87309,-8.30907
1450,1.6971300000000002,-0.87309,-8.30907
1451,2.0208600000000003,-1.0987200000000001,-10.202399999999999
1452,2.0208600000000003,-1.0987200000000001,-10.202399999999999
1453,1.0791000000000002,-1.30473,-10.055250000000001
1454,1.0791000000000002,-1.30473,-10.055250000000001
1455,0.79461,-0.8044200000000001,-10.07487
1456,0.79461,-0.8044200000000001,-10.07487
1457,0.79461,-0.8044200000000001,-10.07487
1458,0.46107000000000004,0.41202000000000005,-9.819810000000002
1459,0.46107000000000004,0.41202000000000005,-9.819810000000002
1460,-0.14715,0.05886,-10.712520000000001
1461,-0.14715,0.05886,-10.712520000000001
1462,-0.14715,0.05886,-10.712520000000001
1463,-1.36359,-0.48069,-10.467270000000001
1464,-1.36359,-0.48069,-10.467270000000001
1465,-0.6376499999999999,-0.12753,-9.859050000000002
1466,-0.6376499999999999,-0.12753,-9.859050000000002
1467,-0.6180300000000001,-0.95157,-9.751140000000001
1468,-0.6180300000000001,-0.95157,-9.751140000000001
1469,-0.52974,-4.110390000000001,-9.28026
1470,-0.52974,-4.110390000000001,-9.28026
1471,-0.52974,-4.110390000000001,-9.28026
1472,-0.52974,-4.110390000000001,-9.28026
1473,-0.5787900000000001,-2.00124,-9.55494
1474,-0.5787900000000001,-2.00124,-9.55494
1475,-0.56898,-2.00124,-9.56475
1476,-0.56898,-2.00124,-9.56475
1477,-0.5787900000000001,-2.10915,-9.54513
1478,-0.5787900000000001,-2.10915,-9.54513
1479,-0.5787900000000001,-2.10915,-9.54513
1480,-0.5493600000000001,-2.42307,-9.486270000000001
1481,-0.5493600000000001,-2.42307,-9.486270000000001
1482,-0.56898,-2.52117,-9.46665
1483,-0.56898,-2.52117,-9.46665
1484,-0.5591700000000001,-2.5113600000000003,-9.486270000000001
1485,-0.5591700000000001,-2.5113600000000003,-9.486270000000001
1486,-0.5591700000000001,-2.5113600000000003,-9.486270000000001
1487,-0.5591700000000001,-2.5113600000000003,-9.486270000000001
1488,-0.56898,-2.4328800000000004,-9.486270000000001
1489,-0.56898,-2.4525,-9.5157
1490,-0.56898,-2.4525,-9.5157
1491,-0.5787900000000001,-2.41326,-9.476460000000001
1492,-0.5787900000000001,-2.41326,-9.476460000000001
1493,-0.5787900000000001,-2.41326,-9.476460000000001
1494,-0.5591700000000001,-2.5505999999999998,-9.476460000000001
1495,-0.5591700000000001,-2.5505999999999998,-9.476460000000001
1496,-0.5591700000000001,-2.5505999999999998,-9.476460000000001
1497,-0.5787900000000001,-2.5113600000000003,-9.45684
1498,-0.5787900000000001,-2.5113600000000003,-9.45684
1499,-0.56898,-2.4525,-9.476460000000001
1500,-0.56898,-2.4525,-9.476460000000001
1501,-0.56898,-2.52117,-9.486270000000001
1502,-0.56898,-2.52117,-9.486270000000001
1503,-0.56898,-2.52117,-9.486270000000001
1504,-0.5591700000000001,-2.5113600000000003,-9.476460000000001
1505,-0.5591700000000001,-2.5113600000000003,-9.476460000000001
1506,-0.5591700000000001,-2.53098,-9.486270000000001
1507,-0.5591700000000001,-2.53098,-9.486270000000001
1508,-0.5591700000000001,-2.54079,-9.46665
1509,-0.5591700000000001,-2.54079,-9.46665
1510,-0.5591700000000001,-2.54079,-9.46665
1511,-0.5493600000000001,-2.4525,-9.5157
1512,-0.5493600000000001,-2.4525,-9.5157
1513,-0.52974,-2.4917400000000005,-9.437220000000002
1514,-0.52974,-2.4917400000000005,-9.437220000000002
1515,-0.52974,-2.4917400000000005,-9.437220000000002
1516,-0.56898,-2.4525,-9.45684
1517,-0.56898,-2.4525,-9.45684
1518,-0.5591700000000001,-2.53098,-9.486270000000001
1519,-0.5591700000000001,-2.53098,-9.486270000000001
1520,-0.5591700000000001,-2.4034500000000003,-9.52551
1521,-0.5591700000000001,-2.4034500000000003,-9.52551
1522,-0.5591700000000001,-2.4034500000000003,-9.52551
1523,-0.56898,-2.4721200000000003,-9.496080000000001
1524,-0.56898,-2.4721200000000003,-9.496080000000001
1525,-0.5493600000000001,-2.5505999999999998,-9.45684
1526,-0.5493600000000001,-2.5505999999999998,-9.45684
1527,-0.56898,-2.4426900000000002,-9.486270000000001
1528,-0.56898,-2.4426900000000002,-9.486270000000001
1529,-0.56898,-2.4426900000000002,-9.486270000000001
1530,-0.5493600000000001,-2.61927,-9.45684
1531,-0.5493600000000001,-2.61927,-9.45684
1532,-0.5493600000000001,-2.5113600000000003,-9.46665
1533,-0.5493600000000001,-2.5113600000000003,-9.46665
1534,-0.5493600000000001,-2.5113600000000003,-9.46665
1535,-0.5591700000000001,-2.5505999999999998,-9.46665
1536,-0.5591700000000001,-2.5505999999999998,-9.46665
1537,-0.5787900000000001,-2.4426900000000002,-9.476460000000001
1538,-0.5787900000000001,-2.4426900000000002,-9.476460000000001
1539,-0.5787900000000001,-2.4426900000000002,-9.476460000000001
1540,-0.5395500000000001,-2.48193,-9.46665
1541,-0.5395500000000001,-2.48193,-9.46665
1542,-0.5493600000000001,-2.54079,-9.45684
1543,-0.5493600000000001,-2.54079,-9.45684
1544,-0.5493600000000001,-2.54079,-9.45684
1545,-0.5591700000000001,-2.5113600000000003,-9.486270000000001
1546,-0.5591700000000001,-2.5113600000000003,-9.486270000000001
1547,-0.5591700000000001,-2.58984,-9.476460000000001
1548,-0.5591700000000001,-2.58984,-9.476460000000001
1549,-0.5591700000000001,-2.5702200000000004,-9.476460000000001
1550,-0.5591700000000001,-2.5702200000000004,-9.476460000000001
1551,-0.5591700000000001,-2.5702200000000004,-9.476460000000001
1552,-0.5493600000000001,-2.53098,-9.447030000000002
1553,-0.5493600000000001,-2.53098,-9.447030000000002
1554,-0.5591700000000001,-2.5702200000000004,-9.45684
1555,-0.5591700000000001,-2.5702200000000004,-9.45684
1556,-0.5591700000000001,-2.5702200000000004,-9.45684
1557,-0.5493600000000001,-2.4917400000000005,-9.496080000000001
1558,-0.5493600000000001,-2.5113600000000003,-9.50589
1559,-0.5493600000000001,-2.5113600000000003,-9.50589
1560,-0.5493600000000001,-2.5113600000000003,-9.50589
1561,-0.56898,-2.5113600000000003,-9.45684
1562,-0.56898,-2.5113600000000003,-9.45684
1563,-0.56898,-2.5113600000000003,-9.45684
1564,-0.5591700000000001,-2.48193,-9.46665
1565,-0.5493600000000001,-2.61927,-9.447030000000002
1566,-0.5493600000000001,-2.61927,-9.447030000000002
1567,-0.5493600000000001,-2.61927,-9.447030000000002
1568,-0.56898,-2.5015500000000004,-9.496080000000001
1569,-0.56898,-2.5015500000000004,-9.496080000000001
1570,-0.56898,-2.5015500000000004,-9.496080000000001
1571,-0.5591700000000001,-2.48193,-9.486270000000001
1572,-0.5591700000000001,-2.48193,-9.486270000000001
1573,-0.5493600000000001,-2.52117,-9.45684
1574,-0.5493600000000001,-2.52117,-9.45684
1575,-0.5591700000000001,-2.5505999999999998,-9.447030000000002
1576,-0.5591700000000001,-2.5505999999999998,-9.447030000000002
1577,-0.5591700000000001,-2.5505999999999998,-9.447030000000002
1578,-0.5591700000000001,-2.5604100000000005,-9.496080000000001
1579,-0.5591700000000001,-2.5604100000000005,-9.496080000000001
1580,-0.56898,-2.5604100000000005,-9.45684
1581,-0.56898,-2.5604100000000005,-9.45684
1582,-0.56898,-2.5604100000000005,-9.45684
1583,-0.56898,-2.5113600000000003,-9.476460000000001
1584,-0.56898,-2.5113600000000003,-9.476460000000001
1585,-0.5493600000000001,-2.46231,-9.45684
1586,-0.5493600000000001,-2.46231,-9.45684
1587,-0.5395500000000001,-2.6487000000000003,-9.45684
1588,-0.5395500000000001,-2.6487000000000003,-9.45684
1589,-0.5395500000000001,-2.6487000000000003,-9.45684
1590,-0.5493600000000001,-2.61927,-9.437220000000002
1591,-0.5493600000000001,-2.61927,-9.437220000000002
1592,-0.5493600000000001,-2.61927,-9.437220000000002
1593,-0.5591700000000001,-2.46231,-9.496080000000001
1594,-0.5591700000000001,-2.46231,-9.496080000000001
1595,-0.5493600000000001,-2.36421,-9.496080000000001
1596,-0.5493600000000001,-2.36421,-9.496080000000001
1597,-0.56898,-2.4034500000000003,-9.5157
1598,-0.56898,-2.4034500000000003,-9.5157
1599,-0.56898,-2.4034500000000003,-9.5157
1600,-0.56898,-2.48193,-9.476460000000001
1601,-0.56898,-2.48193,-9.476460000000001
1602,-0.56898,-2.5113600000000003,-9.46665
1603,-0.56898,-2.5113600000000003,-9.46665
1604,-0.5591700000000001,-2.46231,-9.496080000000001
1605,-0.5591700000000001,-2.46231,-9.496080000000001
1606,-0.56898,-2.52117,-9.486270000000001
1607,-0.56898,-2.52117,-9.486270000000001
1608,-0.56898,-2.52117,-9.486270000000001
1609,-0.5591700000000001,-2.5113600000000003,-9.486270000000001
1610,-0.5591700000000001,-2.5113600000000003,-9.486270000000001
1611,-0.5591700000000001,-2.5113600000000003,-9.486270000000001
1612,-0.47088,-2.52117,-9.93753
1613,-0.47088,-2.52117,-9.93753
1614,-1.10853,-2.5800300000000003,-10.604610000000001
1615,-1.10853,-2.5800300000000003,-10.604610000000001
1616,-0.14715,-1.8246600000000002,-10.172970000000001
1617,-0.14715,-1.8246600000000002,-10.172970000000001
1618,1.4420700000000002,-1.2360600000000002,-10.77138
1619,1.4420700000000002,-1.2360600000000002,-10.77138
1620,1.4420700000000002,-1.2360600000000002,-10.77138
1621,1.0398600000000002,0.33354,-6.77871
1622,1.0398600000000002,0.33354,-6.77871
1623,1.0398600000000002,0.33354,-6.77871
1624,1.6088400000000003,1.75599,-8.85843
1625,1.6088400000000003,1.75599,-8.85843
1626,2.16801,1.06929,-9.93753
1627,2.16801,1.06929,-9.93753
1628,3.07053,-0.6180300000000001,-8.80938
1629,3.07053,-0.6180300000000001,-8.80938
1630,3.07053,-0.6180300000000001,-8.80938
1631,1.4616900000000002,-0.9221400000000001,-8.93691
1632,1.4616900000000002,-0.9221400000000001,-8.93691
1633,0.8534700000000001,-1.06929,-10.63404
1634,0.8534700000000001,-1.06929,-10.63404
1635,0.8534700000000001,-1.06929,-10.63404
1636,3.18825,-1.4028300000000002,-8.16192
1637,3.18825,-1.4028300000000002,-8.16192
1638,2.3740200000000002,-1.1183400000000001,-8.72109
1639,2.3740200000000002,-1.1183400000000001,-8.72109
1640,4.13982,-1.39302,-10.791
1641,4.13982,-1.39302,-10.791
1642,4.13982,-1.39302,-10.791
1643,2.3740200000000002,-3.3746400000000003,-9.04482
1644,2.3740200000000002,-3.3746400000000003,-9.04482
1645,0.96138,-1.5597900000000002,-8.5347
1646,0.96138,-1.5597900000000002,-8.5347
1647,0.96138,-1.5597900000000002,-8.5347
1648,2.943,-1.8933300000000002,-12.78243
1649,2.943,-1.8933300000000002,-12.78243
1650,1.87371,0.36297,-10.241640000000002
1651,1.87371,0.36297,-10.241640000000002
1652,1.87371,0.36297,-10.241640000000002
1653,0.56898,-0.3924,-9.917910000000001
1654,0.56898,-0.3924,-9.917910000000001
1655,-0.48069,-2.2661100000000003,-9.52551
1656,-0.48069,-2.2661100000000003,-9.52551
1657,-1.1281500000000002,-1.88352,-8.97615
1658,-1.1281500000000002,-1.88352,-8.97615
1659,-0.95157,-1.7658000000000003,-9.04482
1660,-0.95157,-1.7658000000000003,-9.04482
1661,-0.95157,-1.7658000000000003,-9.04482
1662,-1.39302,-1.6186500000000001,-9.70209
1663,-1.39302,-1.6186500000000001,-9.70209
1664,-0.8338500000000001,-1.1772,-9.60399
1665,-0.8338500000000001,-1.1772,-9.60399
1666,-0.8338500000000001,-1.1772,-9.60399
1667,-0.40221000000000007,-0.81423,-9.92772
1668,-0.40221000000000007,-0.81423,-9.92772
1669,-0.30411000000000005,-0.94176,-9.55494
1670,-0.30411000000000005,-0.94176,-9.55494
1671,-0.15696000000000002,-1.39302,-9.93753
1672,-0.15696000000000002,-1.39302,-9.93753
1673,-0.15696000000000002,-1.39302,-9.93753
1674,-0.06867000000000001,-0.73575,-9.908100000000001
1675,-0.06867000000000001,-0.73575,-9.908100000000001
1676,0.37278000000000006,-1.39302,-10.428030000000001
1677,0.37278000000000006,-1.39302,-10.428030000000001
1678,0.37278000000000006,-1.39302,-10.428030000000001
1679,-0.16677,-1.4911200000000002,-9.81
1680,-0.16677,-1.4911200000000002,-9.81
1681,-0.7848,-1.1968200000000002,-9.50589
1682,-0.7848,-1.1968200000000002,-9.50589
1683,-1.22625,-2.30535,-9.054630000000001
1684,-1.22625,-2.30535,-9.054630000000001
1685,-1.22625,-2.30535,-9.054630000000001
1686,-1.26549,-2.05029,-9.329310000000001
1687,-1.26549,-2.05029,-9.329310000000001
1688,-0.6867000000000001,-1.7069400000000001,-9.60399
1689,-0.6867000000000001,-1.7069400000000001,-9.60399
1690,-0.6867000000000001,-1.7069400000000001,-9.60399
1691,-0.47088,-1.65789,-9.82962
1692,-0.47088,-1.65789,-9.82962
1693,-0.039240000000000004,-1.38321,-9.682470000000002
1694,-0.039240000000000004,-1.38321,-9.682470000000002
1695,-0.039240000000000004,-1.38321,-9.682470000000002
1696,0.05886,-1.5499800000000001,-10.06506
1697,0.05886,-1.5499800000000001,-10.06506
1698,-0.0981,-1.3734000000000002,-10.035630000000001
1699,-0.0981,-1.3734000000000002,-10.035630000000001
1700,-0.0981,-1.3734000000000002,-10.035630000000001
1701,-0.15696000000000002,-1.1968200000000002,-9.29007
1702,-0.15696000000000002,-1.1968200000000002,-9.29007
1703,0.05886,-1.1968200000000002,-9.59418
1704,0.05886,-1.1968200000000002,-9.59418
1705,0.039240000000000004,-1.13796,-9.917910000000001
1706,0.039240000000000004,-1.13796,-9.917910000000001
1707,0.039240000000000004,-1.13796,-9.917910000000001
1708,-0.36297,-0.95157,-9.633420000000001
1709,-0.36297,-0.95157,-9.633420000000001
1710,-0.40221000000000007,-1.33416,-9.397980000000002
1711,-0.40221000000000007,-1.33416,-9.397980000000002
1712,-0.36297,-1.39302,-9.66285
1713,-0.36297,-1.39302,-9.66285
1714,-0.36297,-1.39302,-9.66285
1715,-0.36297,-1.2360600000000002,-9.56475
1716,-0.36297,-1.2360600000000002,-9.56475
1717,-0.50031,-1.2360600000000002,-9.584370000000002
1718,-0.50031,-1.2360600000000002,-9.584370000000002
1719,-0.13734000000000002,-1.39302,-9.260640000000002
1720,-0.13734000000000002,-1.39302,-9.260640000000002
1721,-0.13734000000000002,-1.39302,-9.260640000000002
1722,-0.13734000000000002,-1.39302,-9.260640000000002
1723,-0.14715,-1.1281500000000002,-10.11411
1724,-0.14715,-1.1281500000000002,-10.11411
1725,-0.15696000000000002,-1.1870100000000001,-9.70209
1726,-0.15696000000000002,-1.1870100000000001,-9.70209
1727,-0.12753,-1.1673900000000001,-9.80019
1728,-0.12753,-1.1673900000000001,-9.80019
1729,-0.13734000000000002,-1.26549,-10.06506
1730,-0.13734000000000002,-1.26549,-10.06506
1731,-0.13734000000000002,-1.26549,-10.06506
1732,-0.20601000000000003,-0.9221400000000001,-9.53532
1733,-0.20601000000000003,-0.9221400000000001,-9.53532
1734,-0.24525,-1.0104300000000002,-9.70209
1735,-0.24525,-1.0104300000000002,-9.70209
1736,-0.36297,-0.95157,-9.751140000000001
1737,-0.36297,-0.95157,-9.751140000000001
1738,-0.36297,-0.95157,-9.751140000000001
1739,-0.94176,-0.9123300000000001,-9.397980000000002
1740,-0.94176,-0.9123300000000001,-9.397980000000002
1741,-0.94176,-0.9123300000000001,-9.397980000000002
1742,-0.94176,-0.9123300000000001,-9.397980000000002
1743,-0.94176,-0.9123300000000001,-9.397980000000002
1744,-0.5493600000000001,-0.6278400000000001,-9.3195
1745,-0.5493600000000001,-0.6278400000000001,-9.3195
1746,-0.5493600000000001,-0.6278400000000001,-9.3195
1747,-0.5493600000000001,-0.6278400000000001,-9.3195
1748,-0.5493600000000001,-0.6278400000000001,-9.3195
1749,-0.6082200000000001,-0.27468000000000004,-9.70209
1750,-0.6082200000000001,-0.27468000000000004,-9.70209
1751,-0.6082200000000001,-0.27468000000000004,-9.70209
1752,-0.6082200000000001,-0.27468000000000004,-9.70209
1753,-0.981,-0.17658000000000001,-9.2214
1754,-0.981,-0.17658000000000001,-9.2214
1755,-0.981,-0.17658000000000001,-9.2214
1756,-0.981,-0.17658000000000001,-9.2214
1757,-0.981,-0.17658000000000001,-9.2214
1758,-0.981,-0.17658000000000001,-9.2214
1759,-0.7749900000000001,-0.44145000000000006,-9.623610000000001
1760,-0.7749900000000001,-0.44145000000000006,-9.623610000000001
1761,-0.7749900000000001,-0.44145000000000006,-9.623610000000001
1762,-0.7749900000000001,-0.44145000000000006,-9.623610000000001
1763,-0.6867000000000001,-0.32373,-9.98658
1764,-0.6867000000000001,-0.32373,-9.98658
1765,-0.6867000000000001,-0.32373,-9.98658
1766,-0.6867000000000001,-0.32373,-9.98658
1767,-0.6867000000000001,-0.32373,-9.98658
1768,-0.6867000000000001,-0.32373,-9.98658
1769,-0.67689,-0.17658000000000001,-10.21221
1770,-0.67689,-0.17658000000000001,-10.21221
1771,-0.67689,-0.17658000000000001,-10.21221
1772,-0.67689,-0.17658000000000001,-10.21221
1773,-0.47088,-0.27468000000000004,-9.87867
1774,-0.47088,-0.27468000000000004,-9.87867
1775,-0.47088,-0.27468000000000004,-9.87867
1776,-0.47088,-0.27468000000000004,-9.87867
1777,-0.47088,-0.27468000000000004,-9.87867
1778,-0.47088,-0.27468000000000004,-9.87867
1779,-0.67689,-0.46107000000000004,-9.859050000000002
1780,-0.67689,-0.46107000000000004,-9.859050000000002
1781,-0.67689,-0.46107000000000004,-9.859050000000002
1782,-0.67689,-0.46107000000000004,-9.859050000000002
1783,-0.67689,-0.46107000000000004,-9.859050000000002
1784,-1.0987200000000001,-0.52974,-9.437220000000002
1785,-1.0987200000000001,-0.52974,-9.437220000000002
1786,-1.0987200000000001,-0.52974,-9.437220000000002
1787,-1.0987200000000001,-0.52974,-9.437220000000002
1788,-1.0987200000000001,-0.52974,-9.437220000000002
1789,-1.35378,-0.7651800000000001,-9.437220000000002
1790,-1.35378,-0.7651800000000001,-9.437220000000002
1791,-1.35378,-0.7651800000000001,-9.437220000000002
1792,-1.35378,-0.7651800000000001,-9.437220000000002
1793,-1.35378,-0.7651800000000001,-9.437220000000002
1794,-1.04967,-0.71613,-9.623610000000001
1795,-1.04967,-0.71613,-9.623610000000001
1796,-1.04967,-0.71613,-9.623610000000001
1797,-1.04967,-0.71613,-9.623610000000001
1798,-1.04967,-0.71613,-9.623610000000001
1799,-0.8240400000000001,-0.79461,-9.476460000000001
1800,-0.8240400000000001,-0.79461,-9.476460000000001
1801,-0.8240400000000001,-0.79461,-9.476460000000001
1802,-0.8240400000000001,-0.79461,-9.476460000000001
1803,-0.8240400000000001,-0.79461,-9.476460000000001
1804,-0.75537,-0.66708,-9.54513
1805,-0.75537,-0.66708,-9.54513
1806,-0.75537,-0.66708,-9.54513
1807,-0.75537,-0.66708,-9.54513
1808,-0.75537,-0.66708,-9.54513
1809,-0.81423,-0.89271,-10.01601
1810,-0.81423,-0.89271,-10.01601
1811,-0.9908100000000001,-0.8044200000000001,-9.67266
1812,-0.9908100000000001,-0.8044200000000001,-9.67266
1813,-1.13796,-0.8534700000000001,-9.868860000000002
1814,-1.13796,-0.8534700000000001,-9.868860000000002
1815,-1.13796,-0.8534700000000001,-9.868860000000002
1816,-0.9908100000000001,-0.9025200000000001,-9.329310000000001
1817,-0.9908100000000001,-0.9025200000000001,-9.329310000000001
1818,-0.95157,-0.981,-9.819810000000002
1819,-0.95157,-0.981,-9.819810000000002
1820,-0.95157,-0.981,-9.819810000000002
1821,-0.79461,-0.9221400000000001,-9.859050000000002
1822,-0.79461,-0.9221400000000001,-9.859050000000002
1823,-0.8044200000000001,-0.73575,-9.908100000000001
1824,-0.8044200000000001,-0.73575,-9.908100000000001
1825,-0.8044200000000001,-0.73575,-9.908100000000001
1826,-0.7848,-0.7455600000000001,-9.898290000000001
1827,-0.7848,-0.7455600000000001,-9.898290000000001
1828,-0.7455600000000001,-0.9908100000000001,-9.476460000000001
1829,-0.7455600000000001,-0.9908100000000001,-9.476460000000001
1830,-0.6278400000000001,-1.05948,-9.486270000000001
1831,-0.6278400000000001,-1.05948,-9.486270000000001
1832,-0.6278400000000001,-1.05948,-9.486270000000001
1833,-0.4905,-1.04967,-10.241640000000002
1834,-0.4905,-1.04967,-10.241640000000002
1835,-0.4905,-1.04967,-10.241640000000002
1836,-0.46107000000000004,-0.81423,-9.447030000000002
1837,-0.5395500000000001,-1.02024,-9.66285
1838,-0.5395500000000001,-1.02024,-9.66285
1839,-0.5395500000000001,-1.02024,-9.66285
1840,-0.37278000000000006,-1.0398600000000002,-9.966960000000002
1841,-0.37278000000000006,-1.0398600000000002,-9.966960000000002
1842,-0.37278000000000006,-1.0398600000000002,-9.966960000000002
1843,-0.0981,-0.95157,-9.780569999999999
1844,-0.0981,-0.95157,-9.780569999999999
1845,-0.04905,-0.81423,-10.07487
1846,-0.04905,-0.81423,-10.07487
1847,-0.04905,-0.81423,-10.07487
1848,-0.42183000000000004,-0.7749900000000001,-9.80019
1849,-0.42183000000000004,-0.7749900000000001,-9.80019
1850,-0.35316000000000003,-0.9123300000000001,-10.12392
1851,-0.35316000000000003,-0.9123300000000001,-10.12392
1852,-0.64746,-0.5787900000000001,-9.55494
1853,-0.64746,-0.5787900000000001,-9.55494
1854,-0.5984100000000001,-0.6376499999999999,-9.37836
1855,-0.5984100000000001,-0.6376499999999999,-9.37836
1856,-0.5984100000000001,-0.6376499999999999,-9.37836
1857,-0.6180300000000001,-0.79461,-9.94734
1858,-0.6180300000000001,-0.79461,-9.94734
1859,-0.36297,-0.7848,-9.74133
1860,-0.36297,-0.7848,-9.74133
1861,-0.05886,-1.00062,-10.428030000000001
1862,-0.05886,-1.00062,-10.428030000000001
1863,-0.05886,-1.00062,-10.428030000000001
1864,-0.34335000000000004,-0.94176,-8.95653
1865,-0.34335000000000004,-0.94176,-8.95653
1866,-0.64746,-0.9711900000000001,-9.98658
1867,-0.64746,-0.9711900000000001,-9.98658
1868,-0.64746,-0.9711900000000001,-9.98658
1869,-0.64746,-0.9711900000000001,-9.98658
1870,-0.7749900000000001,-0.7848,-9.584370000000002
1871,-0.71613,-0.9711900000000001,-9.633420000000001
1872,-0.71613,-0.9711900000000001,-9.633420000000001
1873,-0.72594,-1.0104300000000002,-9.82962
1874,-0.72594,-1.0104300000000002,-9.82962
1875,-0.72594,-1.0104300000000002,-9.82962
1876,-0.9025200000000001,-0.95157,-9.95715
1877,-0.9025200000000001,-0.95157,-9.95715
1878,-0.69651,-1.0104300000000002,-9.4176
1879,-0.69651,-1.0104300000000002,-9.4176
1880,-0.69651,-1.0104300000000002,-9.4176
1881,-0.8240400000000001,-1.7069400000000001,-10.791
1882,-0.8240400000000001,-1.7069400000000001,-10.791
1883,-0.7455600000000001,-2.72718,-9.53532
1884,-0.7455600000000001,-2.72718,-9.53532
1885,-0.7455600000000001,-2.72718,-9.53532
1886,-0.8632800000000002,-4.40469,-8.16192
1887,-0.8632800000000002,-4.40469,-8.16192
1888,-0.5984100000000001,-5.64075,-7.7302800000000005
1889,-0.5984100000000001,-5.64075,-7.7302800000000005
1890,-0.73575,-5.93505,-7.38693
1891,-0.73575,-5.93505,-7.38693
1892,-0.73575,-5.93505,-7.38693
1893,-0.73575,-5.93505,-7.38693
1894,-0.65727,-6.258780000000001,-7.87743
1895,-0.52974,-5.846760000000001,-7.573320000000001
1896,-0.52974,-5.846760000000001,-7.573320000000001
1897,-0.7848,-4.316400000000001,-8.28945
1898,-0.7848,-4.316400000000001,-8.28945
1899,-0.7848,-4.316400000000001,-8.28945
1900,-0.7455600000000001,-0.38259000000000004,-9.83943
1901,-0.7455600000000001,-0.38259000000000004,-9.83943
1902,-0.8534700000000001,1.6873200000000002,-10.133730000000002
1903,-0.8534700000000001,1.6873200000000002,-10.133730000000002
1904,-0.8534700000000001,1.6873200000000002,-10.133730000000002
1905,-0.981,3.31578,-9.45684
1906,-0.981,3.31578,-9.45684
1907,-0.8534700000000001,3.3942600000000005,-8.887860000000002
1908,-0.8534700000000001,3.3942600000000005,-8.887860000000002
1909,-0.81423,2.5505999999999998,-10.800810000000002
1910,-0.81423,2.5505999999999998,-10.800810000000002
1911,-0.81423,2.5505999999999998,-10.800810000000002
1912,-0.17658000000000001,1.1183400000000001,-8.878050000000002
1913,-0.17658000000000001,1.1183400000000001,-8.878050000000002
1914,-0.07848000000000001,-1.0104300000000002,-8.770140000000001
1915,-0.07848000000000001,-1.0104300000000002,-8.770140000000001
1916,-0.5199300000000001,-1.1968200000000002,-12.664710000000001
1917,-0.5199300000000001,-1.1968200000000002,-12.664710000000001
1918,-0.5199300000000001,-1.1968200000000002,-12.664710000000001
1919,-0.5199300000000001,-1.1968200000000002,-12.664710000000001
1920,-1.1673900000000001,-1.5794100000000002,-10.055250000000001
1921,-1.1673900000000001,-1.5794100000000002,-10.055250000000001
1922,-4.26735,-1.6480800000000002,-8.230590000000001
1923,-4.26735,-1.6480800000000002,-8.230590000000001
1924,-5.984100000000001,-2.4426900000000002,-3.65913
1925,-5.984100000000001,-2.4426900000000002,-3.65913
1926,-5.964480000000001,-1.6382700000000001,-6.49422
1927,-5.964480000000001,-1.6382700000000001,-6.49422
1928,-5.964480000000001,-1.6382700000000001,-6.49422
1929,-6.07239,-1.99143,-8.5347
1930,-6.07239,-1.99143,-8.5347
1931,-5.1600600000000005,-1.58922,-8.18154
1932,-5.1600600000000005,-1.58922,-8.18154
1933,-5.1600600000000005,-1.58922,-8.18154
1934,-4.79709,-1.7756100000000001,-8.593560000000002
1935,-4.76766,-2.0797200000000005,-8.28945
1936,-4.76766,-2.0797200000000005,-8.28945
1937,-4.76766,-2.0797200000000005,-8.28945
1938,-3.9338100000000007,-1.54017,-7.092630000000001
1939,-3.9338100000000007,-1.54017,-7.092630000000001
1940,-3.9338100000000007,-1.54017,-7.092630000000001
1941,-1.2752999999999999,-0.40221000000000007,-8.456220000000002
1942,-1.2752999999999999,-0.40221000000000007,-8.456220000000002
1943,-1.2752999999999999,-0.40221000000000007,-8.456220000000002
1944,0.27468000000000004,-0.30411000000000005,-11.016630000000001
1945,2.4426900000000002,0.27468000000000004,-9.70209
1946,2.4426900000000002,0.27468000000000004,-9.70209
1947,2.4426900000000002,0.27468000000000004,-9.70209
1948,2.77623,0.5493600000000001,-10.045440000000001
1949,2.77623,0.5493600000000001,-10.045440000000001
1950,2.77623,0.5493600000000001,-10.045440000000001
1951,3.0509100000000005,0.50031,-9.27045
1952,3.0509100000000005,0.50031,-9.27045
1953,3.03129,0.2943,-9.84924
1954,3.03129,0.2943,-9.84924
1955,1.9325700000000001,-0.25506,-11.183400000000002
1956,1.9325700000000001,-0.25506,-11.183400000000002
1957,1.0791000000000002,-0.47088,-8.51508
1958,1.0791000000000002,-0.47088,-8.51508
1959,1.0791000000000002,-0.47088,-8.51508
1960,-0.13734000000000002,-0.6867000000000001,-9.211590000000001
1961,-0.13734000000000002,-0.6867000000000001,-9.211590000000001
1962,-0.4316400000000001,-1.4715,-9.731520000000002
1963,-0.4316400000000001,-1.4715,-9.731520000000002
1964,0.7651800000000001,-0.9319500000000001,-9.633420000000001
1965,0.7651800000000001,-0.9319500000000001,-9.633420000000001
1966,0.7651800000000001,-0.9319500000000001,-9.633420000000001
1967,0.7651800000000001,-0.9319500000000001,-9.633420000000001
1968,0.44145000000000006,0.4316400000000001,-9.633420000000001
1969,0.44145000000000006,0.4316400000000001,-9.633420000000001
1970,0.5591700000000001,-0.14715,-10.388790000000002
1971,0.5591700000000001,-0.14715,-10.388790000000002
1972,-0.72594,-2.86452,-7.906860000000001
1973,-0.72594,-2.86452,-7.906860000000001
1974,-0.72594,-2.86452,-7.906860000000001
1975,1.29492,-1.03005,-10.457460000000001
1976,1.29492,-1.03005,-10.457460000000001
1977,1.06929,-1.29492,-9.908100000000001
1978,1.06929,-1.29492,-9.908100000000001
1979,1.5696,-1.7756100000000001,-9.751140000000001
1980,1.5696,-1.7756100000000001,-9.751140000000001
1981,1.5696,-1.7756100000000001,-9.751140000000001
1982,1.26549,-1.14777,-10.310310000000001
1983,1.26549,-1.14777,-10.310310000000001
1984,1.20663,-1.0791000000000002,-9.87867
1985,1.20663,-1.0791000000000002,-9.87867
1986,0.7455600000000001,-1.2164400000000002,-9.7119
1987,0.7455600000000001,-1.2164400000000002,-9.7119
1988,0.7455600000000001,-1.2164400000000002,-9.7119
1989,0.31392000000000003,-1.35378,-9.476460000000001
1990,0.31392000000000003,-1.35378,-9.476460000000001
1991,0.1962,-1.5597900000000002,-9.59418
1992,0.1962,-1.5597900000000002,-9.59418
1993,0.1962,-1.5597900000000002,-9.59418
1994,0.27468000000000004,-1.5696,-9.64323
1995,0.27468000000000004,-1.5696,-9.64323
1996,0.10791000000000002,-1.59903,-9.46665
1997,0.10791000000000002,-1.59903,-9.46665
1998,0.21582000000000004,-1.50093,-9.397980000000002
1999,0.21582000000000004,-1.50093,-9.397980000000002
2000,-0.039240000000000004,-1.33416,-9.98658
2001,-0.039240000000000004,-1.33416,-9.98658
2002,-0.039240000000000004,-1.33416,-9.98658
2003,0.23544,-1.74618,-9.348930000000001
2004,0.23544,-1.74618,-9.348930000000001
2005,0.23544,-1.74618,-9.348930000000001
2006,-0.42183000000000004,-1.22625,-9.760950000000001
2007,-0.42183000000000004,-1.22625,-9.760950000000001
2008,-0.81423,-1.4126400000000001,-9.59418
2009,-0.81423,-1.4126400000000001,-9.59418
2010,-1.06929,-1.31454,-9.623610000000001
2011,-1.06929,-1.31454,-9.623610000000001
2012,-1.06929,-1.31454,-9.623610000000001
2013,-0.9123300000000001,-1.36359,-9.780569999999999
2014,-0.9123300000000001,-1.36359,-9.780569999999999
2015,-1.35378,-1.31454,-9.770760000000001
2016,-1.35378,-1.31454,-9.770760000000001
2017,-1.6873200000000002,-1.5303600000000002,-9.50589
2018,-1.6873200000000002,-1.5303600000000002,-9.50589
2019,-1.6873200000000002,-1.5303600000000002,-9.50589
2020,-1.6677000000000002,-1.7363700000000002,-9.260640000000002
2021,-1.6677000000000002,-1.7363700000000002,-9.260640000000002
2022,-1.4911200000000002,-1.9129500000000002,-9.00558
2023,-1.4911200000000002,-1.9129500000000002,-9.00558
2024,-1.4911200000000002,-1.9129500000000002,-9.00558
2025,-1.39302,-1.35378,-9.54513
2026,-1.31454,-1.1673900000000001,-10.07487
2027,-1.31454,-1.1673900000000001,-10.07487
2028,-1.31454,-1.1673900000000001,-10.07487
2029,-1.34397,-0.81423,-9.191970000000001
2030,-1.34397,-0.81423,-9.191970000000001
2031,-1.34397,-0.81423,-9.191970000000001
2032,-1.35378,-1.3734000000000002,-9.55494
2033,-1.35378,-1.3734000000000002,-9.55494
2034,-0.9908100000000001,-1.4715,-9.819810000000002
2035,-0.9908100000000001,-1.4715,-9.819810000000002
2036,-1.50093,-3.10977,-9.36855
2037,-1.50093,-3.10977,-9.36855
2038,-1.50093,-3.10977,-9.36855
2039,-0.65727,-2.48193,-9.2214
2040,-0.65727,-2.48193,-9.2214
2041,-0.65727,-2.48193,-9.2214
2042,-0.10791000000000002,-3.19806,-9.074250000000001
2043,-0.10791000000000002,-3.19806,-9.074250000000001
2044,0.08829000000000001,-3.24711,-9.437220000000002
2045,0.08829000000000001,-3.24711,-9.437220000000002
2046,-0.13734000000000002,-2.8449,-9.7119
2047,-0.13734000000000002,-2.8449,-9.7119
2048,-0.13734000000000002,-2.8449,-9.7119
2049,-0.6278400000000001,-2.4721200000000003,-9.437220000000002
2050,-0.6278400000000001,-2.4721200000000003,-9.437220000000002
2051,0.15696000000000002,-2.7468000000000004,-9.682470000000002
2052,0.15696000000000002,-2.7468000000000004,-9.682470000000002
2053,0.15696000000000002,-2.7468000000000004,-9.682470000000002
2054,-0.20601000000000003,-2.8841400000000004,-10.457460000000001
2055,-0.20601000000000003,-2.8841400000000004,-10.457460000000001
2056,-1.4028300000000002,-1.99143,-10.4967
2057,-1.4028300000000002,-1.99143,-10.4967
2058,-1.4028300000000002,-1.99143,-10.4967
2059,-3.0411000000000006,-2.4721200000000003,-9.70209
2060,-3.0411000000000006,-2.4721200000000003,-9.70209
2061,-5.542650000000001,-3.2863500000000005,-7.24959
2062,-5.542650000000001,-3.2863500000000005,-7.24959
2063,-5.542650000000001,-3.2863500000000005,-7.24959
2064,-7.00434,-2.4525,-6.65118
2065,-7.00434,-2.4525,-6.65118
2066,-7.514460000000001,-0.8632800000000002,-3.99267
2067,-7.514460000000001,-0.8632800000000002,-3.99267
2068,-7.926480000000001,1.2851100000000002,-3.9338100000000007
2069,-7.926480000000001,1.2851100000000002,-3.9338100000000007
2070,-7.161300000000001,2.28573,-6.09201
2071,-7.161300000000001,2.28573,-6.09201
2072,-7.161300000000001,2.28573,-6.09201
2073,-6.30783,3.6395100000000005,-6.660990000000001
2074,-6.30783,3.6395100000000005,-6.660990000000001
2075,-3.97305,2.62908,-8.72109
2076,-3.97305,2.62908,-8.72109
2077,-3.3354000000000004,1.36359,-8.19135
2078,-3.3354000000000004,1.36359,-8.19135
2079,-3.3354000000000004,1.36359,-8.19135
2080,-3.3354000000000004,1.36359,-8.19135
2081,-2.95281,1.7265600000000003,-10.3986
2082,-1.65789,1.59903,-9.397980000000002
2083,-1.65789,1.59903,-9.397980000000002
2084,-2.04048,0.7455600000000001,-9.721710000000002
2085,-2.04048,0.7455600000000001,-9.721710000000002
2086,-2.04048,0.7455600000000001,-9.721710000000002
2087,-1.5499800000000001,0.40221000000000007,-9.92772
2088,-1.5499800000000001,0.40221000000000007,-9.92772
2089,-1.5499800000000001,0.40221000000000007,-9.92772
2090,-2.22687,-0.8632800000000002,-9.81
2091,-2.22687,-0.8632800000000002,-9.81
2092,-2.22687,-0.8632800000000002,-9.81
2093,-2.2563000000000004,-1.5597900000000002,-9.56475
2094,-1.8246600000000002,-1.7363700000000002,-9.67266
2095,-1.8246600000000002,-1.7363700000000002,-9.67266
2096,-1.4028300000000002,-2.53098,-10.104300000000002
2097,-1.4028300000000002,-2.53098,-10.104300000000002
2098,-1.4028300000000002,-2.53098,-10.104300000000002
2099,-2.21706,-1.0987200000000001,-7.553700000000001
2100,-2.21706,-1.0987200000000001,-7.553700000000001
2101,-2.21706,-1.0987200000000001,-7.553700000000001
2102,-2.18763,0.36297,-10.849860000000001
2103,-2.18763,0.36297,-10.849860000000001
2104,-1.6971300000000002,0.81423,-9.83943
2105,-1.6971300000000002,0.81423,-9.83943
2106,-0.8534700000000001,0.9908100000000001,-9.819810000000002
2107,-0.8534700000000001,0.9908100000000001,-9.819810000000002
2108,-0.8534700000000001,0.9908100000000001,-9.819810000000002
2109,-0.46107000000000004,0.48069,-8.358120000000001
2110,-0.46107000000000004,0.48069,-8.358120000000001
2111,-0.6180300000000001,0.51012,-9.67266
2112,-0.6180300000000001,0.51012,-9.67266
2113,-0.6180300000000001,0.51012,-9.67266
2114,-1.3734000000000002,-0.46107000000000004,-10.869480000000001
2115,-1.3734000000000002,-0.46107000000000004,-10.869480000000001
2116,-1.1575800000000003,-1.4911200000000002,-9.751140000000001
2117,-1.1575800000000003,-1.4911200000000002,-9.751140000000001
2118,-0.8240400000000001,-2.5604100000000005,-10.54575
2119,-0.8240400000000001,-2.5604100000000005,-10.54575
2120,-0.8240400000000001,-2.5604100000000005,-10.54575
2121,-0.8240400000000001,-2.5604100000000005,-10.54575
2122,-0.8240400000000001,-2.5604100000000005,-10.54575
2123,-0.7063200000000001,-3.26673,-10.06506
2124,-0.7063200000000001,-3.26673,-10.06506
2125,-0.7063200000000001,-3.26673,-10.06506
2126,-0.7063200000000001,-3.26673,-10.06506
2127,-0.7063200000000001,-3.26673,-10.06506
2128,-0.96138,-1.36359,-8.838810000000002
2129,-0.96138,-1.36359,-8.838810000000002
2130,-0.96138,-1.36359,-8.838810000000002
2131,-0.96138,-1.36359,-8.838810000000002
2132,-0.96138,-1.36359,-8.838810000000002
2133,-1.8933300000000002,-2.61927,-9.064440000000001
2134,-1.8933300000000002,-2.61927,-9.064440000000001
2135,-1.8933300000000002,-2.61927,-9.064440000000001
2136,-1.8933300000000002,-2.61927,-9.064440000000001
2137,-1.8933300000000002,-2.61927,-9.064440000000001
2138,-3.6395100000000005,-3.2176800000000005,-9.00558
2139,-3.6395100000000005,-3.2176800000000005,-9.00558
2140,-3.6395100000000005,-3.2176800000000005,-9.00558
2141,-3.6395100000000005,-3.2176800000000005,-9.00558
2142,-3.6395100000000005,-3.2176800000000005,-9.00558
2143,-3.1588200000000004,-3.50217,-9.4176
2144,-3.1588200000000004,-3.50217,-9.4176
2145,-3.1588200000000004,-3.50217,-9.4176
2146,-3.1588200000000004,-3.50217,-9.4176
2147,-3.1588200000000004,-3.50217,-9.4176
2148,-2.66832,-2.9920500000000003,-8.17173
2149,-2.66832,-2.9920500000000003,-8.17173
2150,-2.66832,-2.9920500000000003,-8.17173
2151,-2.66832,-2.9920500000000003,-8.17173
2152,-2.66832,-2.9920500000000003,-8.17173
2153,-2.66832,-2.9920500000000003,-8.17173
2154,-3.8259000000000003,-1.9423800000000002,-7.7989500000000005
2155,-3.8259000000000003,-1.9423800000000002,-7.7989500000000005
2156,-3.8259000000000003,-1.9423800000000002,-7.7989500000000005
2157,-3.8259000000000003,-1.9423800000000002,-7.7989500000000005
2158,-2.8056600000000005,-5.493600000000001,-10.06506
2159,-2.8056600000000005,-5.493600000000001,-10.06506
2160,-2.8056600000000005,-5.493600000000001,-10.06506
2161,-2.8056600000000005,-5.493600000000001,-10.06506
2162,-2.8056600000000005,-5.493600000000001,-10.06506
2163,-2.01105,-2.13858,-9.476460000000001
2164,-2.01105,-2.13858,-9.476460000000001
2165,-2.01105,-2.13858,-9.476460000000001
2166,-2.01105,-2.13858,-9.476460000000001
2167,-2.01105,-2.13858,-9.476460000000001
2168,-1.0104300000000002,-0.8534700000000001,-10.11411
2169,-1.0104300000000002,-0.8534700000000001,-10.11411
2170,-1.0104300000000002,-0.8534700000000001,-10.11411
2171,-1.0104300000000002,-0.8534700000000001,-10.11411
2172,-1.0104300000000002,-0.8534700000000001,-10.11411
2173,-0.18639000000000003,-1.29492,-8.740710000000002
2174,-0.18639000000000003,-1.29492,-8.740710000000002
2175,-0.18639000000000003,-1.29492,-8.740710000000002
2176,-0.18639000000000003,-1.29492,-8.740710000000002
2177,-0.18639000000000003,-1.29492,-8.740710000000002
2178,-1.02024,-0.20601000000000003,-9.15273
2179,-1.02024,-0.20601000000000003,-9.15273
2180,-1.02024,-0.20601000000000003,-9.15273
2181,-1.02024,-0.20601000000000003,-9.15273
2182,-1.02024,-0.20601000000000003,-9.15273
2183,-1.02024,-0.20601000000000003,-9.15273
2184,-0.6376499999999999,-1.38321,-8.250210000000001
2185,-0.6376499999999999,-1.38321,-8.250210000000001
2186,-0.6376499999999999,-1.38321,-8.250210000000001
2187,-0.6376499999999999,-1.38321,-8.250210000000001
2188,-0.6376499999999999,-1.38321,-8.250210000000001
2189,-1.81485,-3.3059700000000003,-9.2214
2190,-1.81485,-3.3059700000000003,-9.2214
2191,-1.81485,-3.3059700000000003,-9.2214
2192,-1.81485,-3.3059700000000003,-9.2214
2193,0.9123300000000001,-3.0509100000000005,-11.62485
2194,0.9123300000000001,-3.0509100000000005,-11.62485
2195,0.9123300000000001,-3.0509100000000005,-11.62485
2196,0.9123300000000001,-3.0509100000000005,-11.62485
2197,0.9123300000000001,-3.0509100000000005,-11.62485
2198,1.962,-2.62908,-11.016630000000001
2199,1.962,-2.62908,-11.016630000000001
2200,1.962,-2.62908,-11.016630000000001
2201,1.962,-2.62908,-11.016630000000001
2202,1.962,-2.62908,-11.016630000000001
2203,-0.37278000000000006,-2.58984,-9.28026
2204,-0.37278000000000006,-2.58984,-9.28026
2205,-0.37278000000000006,-2.58984,-9.28026
2206,-0.37278000000000006,-2.58984,-9.28026
2207,-0.37278000000000006,-2.58984,-9.28026
2208,0.8829000000000001,-0.8436600000000001,-8.456220000000002
2209,0.8829000000000001,-0.8436600000000001,-8.456220000000002
2210,0.8829000000000001,-0.8436600000000001,-8.456220000000002
2211,0.8829000000000001,-0.8436600000000001,-8.456220000000002
2212,0.8829000000000001,-0.8436600000000001,-8.456220000000002
2213,-1.4126400000000001,-2.11896,-7.96572
2214,-1.4126400000000001,-2.11896,-7.96572
2215,-1.4126400000000001,-2.11896,-7.96572
2216,-1.4126400000000001,-2.11896,-7.96572
2217,-1.4126400000000001,-2.11896,-7.96572
2218,-1.4126400000000001,-2.11896,-7.96572
2219,0.10791000000000002,-4.806900000000001,-8.456220000000002
2220,0.10791000000000002,-4.806900000000001,-8.456220000000002
2221,0.10791000000000002,-4.806900000000001,-8.456220000000002
2222,0.10791000000000002,-4.806900000000001,-8.456220000000002
2223,0.10791000000000002,-4.806900000000001,-8.456220000000002
2224,1.2458700000000003,-1.4715,-11.89953
2225,1.2458700000000003,-1.4715,-11.89953
2226,1.2458700000000003,-1.4715,-11.89953
2227,1.2458700000000003,-1.4715,-11.89953
2228,1.31454,-3.7866600000000004,-8.37774
2229,1.31454,-3.7866600000000004,-8.37774
2230,1.31454,-3.7866600000000004,-8.37774
2231,1.31454,-3.7866600000000004,-8.37774
2232,1.31454,-3.7866600000000004,-8.37774
2233,1.31454,-3.7866600000000004,-8.37774
2234,0.81423,-3.1195800000000005,-9.4176
2235,0.81423,-3.1195800000000005,-9.4176
2236,0.81423,-3.1195800000000005,-9.4176
2237,0.81423,-3.1195800000000005,-9.4176
2238,0.47088,-3.01167,-8.57394
2239,0.47088,-3.01167,-8.57394
2240,0.47088,-3.01167,-8.57394
2241,0.47088,-3.01167,-8.57394
2242,0.47088,-3.01167,-8.57394
2243,-1.20663,-1.9816200000000002,-9.917910000000001
2244,-1.20663,-1.9816200000000002,-9.917910000000001
2245,-1.20663,-1.9816200000000002,-9.917910000000001
2246,-1.20663,-1.9816200000000002,-9.917910000000001
2247,-1.20663,-1.9816200000000002,-9.917910000000001
2248,-0.6278400000000001,-2.05029,-9.348930000000001
2249,-0.6278400000000001,-2.05029,-9.348930000000001
2250,-0.6278400000000001,-2.05029,-9.348930000000001
2251,-0.6278400000000001,-2.05029,-9.348930000000001
2252,-0.6278400000000001,-2.05029,-9.348930000000001
2253,-2.34459,-2.6781300000000003,-12.37041
2254,-2.34459,-2.6781300000000003,-12.37041
2255,-2.34459,-2.6781300000000003,-12.37041
2256,-2.34459,-2.6781300000000003,-12.37041
2257,-2.34459,-2.6781300000000003,-12.37041
2258,-2.34459,-2.6781300000000003,-12.37041
2259,-1.9718100000000003,-2.0895300000000003,-8.55432
2260,-1.9718100000000003,-2.0895300000000003,-8.55432
2261,-1.14777,-1.42245,-9.18216
2262,-1.14777,-1.42245,-9.18216
2263,-0.6376499999999999,-3.924,-9.201780000000001
2264,-0.6376499999999999,-3.924,-9.201780000000001
2265,0.16677,-3.2961600000000004,-8.29926
2266,0.16677,-3.2961600000000004,-8.29926
2267,0.16677,-3.2961600000000004,-8.29926
2268,-0.18639000000000003,-3.6983700000000006,-10.47708
2269,-0.18639000000000003,-3.6983700000000006,-10.47708
2270,-1.9129500000000002,-3.7179900000000004,-8.770140000000001
2271,-1.9129500000000002,-3.7179900000000004,-8.770140000000001
2272,-1.9129500000000002,-3.7179900000000004,-8.770140000000001
2273,-0.8240400000000001,-3.60027,-9.996390000000002
2274,-0.8240400000000001,-3.60027,-9.996390000000002
2275,-0.9319500000000001,-2.34459,-9.35874
2276,-0.9319500000000001,-2.34459,-9.35874
2277,-1.03005,-2.90376,-9.7119
2278,-1.03005,-2.90376,-9.7119
2279,-1.03005,-2.90376,-9.7119
2280,-0.8436600000000001,-2.4328800000000004,-9.437220000000002
2281,-0.8436600000000001,-2.4328800000000004,-9.437220000000002
2282,-0.51012,-1.8050400000000002,-9.56475
2283,-0.51012,-1.8050400000000002,-9.56475
2284,-0.51012,-1.8050400000000002,-9.56475
2285,-0.79461,-1.7265600000000003,-9.92772
2286,-0.79461,-1.7265600000000003,-9.92772
2287,-0.8240400000000001,-2.06991,-9.496080000000001
2288,-0.8240400000000001,-2.06991,-9.496080000000001
2289,-0.27468000000000004,-2.8939500000000002,-11.409030000000001
2290,-0.27468000000000004,-2.8939500000000002,-11.409030000000001
2291,-0.27468000000000004,-2.8939500000000002,-11.409030000000001
2292,0.0,-2.7173700000000003,-9.201780000000001
2293,0.0,-2.7173700000000003,-9.201780000000001
2294,0.20601000000000003,-2.2563000000000004,-8.740710000000002
2295,0.20601000000000003,-2.2563000000000004,-8.740710000000002
2296,0.20601000000000003,-2.2563000000000004,-8.740710000000002
2297,-2.03067,-4.89519,-11.81124
2298,-2.03067,-4.89519,-11.81124
2299,-0.8044200000000001,-3.50217,-8.3385
2300,-0.8044200000000001,-3.50217,-8.3385
2301,-0.17658000000000001,-2.9233800000000003,-8.76033
2302,-0.17658000000000001,-2.9233800000000003,-8.76033
2303,-0.17658000000000001,-2.9233800000000003,-8.76033
2304,0.79461,-6.317640000000001,-10.732140000000001
2305,0.79461,-6.317640000000001,-10.732140000000001
2306,0.79461,-6.317640000000001,-10.732140000000001
2307,0.72594,-2.4426900000000002,-7.514460000000001
2308,0.72594,-2.4426900000000002,-7.514460000000001
2309,0.6278400000000001,-3.3942600000000005,-9.66285
2310,0.6278400000000001,-3.3942600000000005,-9.66285
2311,-2.24649,-3.7572300000000003,-9.00558
2312,-2.24649,-3.7572300000000003,-9.00558
2313,-2.24649,-3.7572300000000003,-9.00558
2314,-0.6180300000000001,-3.00186,-7.906860000000001
2315,-0.6180300000000001,-3.00186,-7.906860000000001
2316,-1.2851100000000002,-1.43226,-10.418220000000002
2317,-1.2851100000000002,-1.43226,-10.418220000000002
2318,-0.9123300000000001,-1.92276,-7.9461
2319,-0.9123300000000001,-1.92276,-7.9461
2320,-0.9123300000000001,-1.92276,-7.9461
2321,-1.81485,-1.10853,-7.14168
2322,-1.81485,-1.10853,-7.14168
2323,0.21582000000000004,-2.8841400000000004,-10.280880000000002
2324,0.21582000000000004,-2.8841400000000004,-10.280880000000002
2325,0.21582000000000004,-2.8841400000000004,-10.280880000000002
2326,-1.5696,-1.83447,-8.07363
2327,-1.5696,-1.83447,-8.07363
2328,0.5199300000000001,-2.943,-8.12268
2329,0.5199300000000001,-2.943,-8.12268
2330,0.5199300000000001,-2.943,-8.12268
2331,-0.8436600000000001,-6.56289,-10.26126
2332,-0.8436600000000001,-6.56289,-10.26126
2333,0.47088,-2.8841400000000004,-8.09325
2334,0.47088,-2.8841400000000004,-8.09325
2335,0.47088,-5.37588,-11.20302
2336,0.47088,-5.37588,-11.20302
2337,-1.13796,-2.6781300000000003,-8.80938
2338,-1.13796,-2.6781300000000003,-8.80938
2339,-1.13796,-2.6781300000000003,-8.80938
2340,-0.37278000000000006,-2.70756,-9.23121
2341,-0.37278000000000006,-2.70756,-9.23121
2342,0.02943,-4.07115,-10.947960000000002
2343,0.02943,-4.07115,-10.947960000000002
2344,-0.05886,-1.6382700000000001,-7.11225
2345,-0.05886,-1.6382700000000001,-7.11225
2346,-0.05886,-1.6382700000000001,-7.11225
2347,-0.13734000000000002,-2.76642,-9.819810000000002
2348,-0.13734000000000002,-2.76642,-9.819810000000002
2349,-1.59903,-1.10853,-8.1423
2350,-1.59903,-1.10853,-8.1423
2351,-1.59903,-1.10853,-8.1423
2352,-0.9319500000000001,-1.38321,-8.887860000000002
2353,-0.9319500000000001,-1.38321,-8.887860000000002
2354,-0.45126000000000005,-0.56898,-11.418840000000001
2355,-0.45126000000000005,-0.56898,-11.418840000000001
2356,-0.45126000000000005,-0.56898,-11.418840000000001
2357,1.0987200000000001,-1.1673900000000001,-10.82043
2358,1.0987200000000001,-1.1673900000000001,-10.82043
2359,-0.27468000000000004,0.05886,-7.24959
2360,-0.27468000000000004,0.05886,-7.24959
2361,-0.27468000000000004,0.05886,-7.24959
2362,0.35316000000000003,1.1870100000000001,-11.74257
2363,0.35316000000000003,1.1870100000000001,-11.74257
2364,-1.7756100000000001,0.05886,-8.05401
2365,-1.7756100000000001,0.05886,-8.05401
2366,-1.7756100000000001,0.05886,-8.05401
2367,-2.0895300000000003,0.5493600000000001,-10.02582
2368,-2.27592,-1.6382700000000001,-9.55494
2369,-2.27592,-1.6382700000000001,-9.55494
2370,-2.27592,-1.6382700000000001,-9.55494
2371,-0.8534700000000001,0.5395500000000001,-7.40655
2372,-0.8534700000000001,0.5395500000000001,-7.40655
2373,-0.8534700000000001,0.5395500000000001,-7.40655
2374,-0.89271,1.2556800000000001,-10.526130000000002
2375,-0.89271,1.2556800000000001,-10.526130000000002
2376,-3.02148,-1.33416,-8.789760000000001
2377,-3.02148,-1.33416,-8.789760000000001
2378,-1.2360600000000002,0.5591700000000001,-8.318880000000002
2379,-1.2360600000000002,0.5591700000000001,-8.318880000000002
2380,-1.1870100000000001,-0.34335000000000004,-11.114730000000002
2381,-1.1870100000000001,-0.34335000000000004,-11.114730000000002
2382,-1.1870100000000001,-0.34335000000000004,-11.114730000000002
2383,-0.17658000000000001,-0.6376499999999999,-8.71128
2384,-0.17658000000000001,-0.6376499999999999,-8.71128
2385,-0.17658000000000001,-0.6376499999999999,-8.71128
2386,-0.12753,0.69651,-9.40779
2387,-0.12753,0.69651,-9.40779
2388,0.8338500000000001,0.95157,-14.24412
2389,0.8338500000000001,0.95157,-14.24412
2390,-0.89271,-0.0981,-8.887860000000002
2391,-0.89271,-0.0981,-8.887860000000002
2392,-0.89271,-0.0981,-8.887860000000002
2393,-0.71613,0.10791000000000002,-10.035630000000001
2394,-0.71613,0.10791000000000002,-10.035630000000001
2395,-0.71613,0.10791000000000002,-10.035630000000001
2396,0.64746,-0.8829000000000001,-11.830860000000001
2397,-0.10791000000000002,0.45126000000000005,-7.465410000000001
2398,-0.10791000000000002,0.45126000000000005,-7.465410000000001
2399,0.20601000000000003,-0.039240000000000004,-10.594800000000001
2400,0.20601000000000003,-0.039240000000000004,-10.594800000000001
2401,0.20601000000000003,-0.039240000000000004,-10.594800000000001
2402,-1.51074,-1.1772,-9.18216
2403,-1.51074,-1.1772,-9.18216
2404,-1.51074,-1.1772,-9.18216
2405,-1.67751,1.8246600000000002,-9.084060000000001
2406,-1.67751,1.8246600000000002,-9.084060000000001
2407,-1.67751,0.9221400000000001,-12.252690000000001
2408,-1.67751,0.9221400000000001,-12.252690000000001
2409,-1.67751,0.9221400000000001,-12.252690000000001
2410,0.18639000000000003,-0.40221000000000007,-8.98596
2411,0.18639000000000003,-0.40221000000000007,-8.98596
2412,-0.52974,0.18639000000000003,-9.496080000000001
2413,-0.52974,0.18639000000000003,-9.496080000000001
2414,-3.5316000000000005,-1.29492,-10.172970000000001
2415,-3.5316000000000005,-1.29492,-10.172970000000001
2416,-3.5316000000000005,-1.29492,-10.172970000000001
2417,-2.61927,-0.79461,-9.60399
2418,-2.61927,-0.79461,-9.60399
2419,-2.52117,-0.8044200000000001,-10.08468
2420,-2.52117,-0.8044200000000001,-10.08468
2421,-2.52117,-0.8044200000000001,-10.08468
2422,-1.3734000000000002,-1.5499800000000001,-8.318880000000002
2423,-1.3734000000000002,-1.5499800000000001,-8.318880000000002
2424,-0.8829000000000001,-1.1968200000000002,-9.70209
2425,-0.8829000000000001,-1.1968200000000002,-9.70209
2426,-1.2851100000000002,-1.5499800000000001,-9.339120000000001
2427,-1.2851100000000002,-1.5499800000000001,-9.339120000000001
2428,-1.2851100000000002,-1.5499800000000001,-9.339120000000001
2429,-2.54079,-1.1968200000000002,-9.45684
2430,-2.54079,-1.1968200000000002,-9.45684
2431,-1.962,-1.2458700000000003,-9.4176
2432,-1.962,-1.2458700000000003,-9.4176
2433,-1.45188,-1.5205500000000003,-9.54513
2434,-1.45188,-1.5205500000000003,-9.54513
2435,-1.45188,-1.5205500000000003,-9.54513
2436,-1.7756100000000001,-1.4813100000000001,-9.682470000000002
2437,-1.7756100000000001,-1.4813100000000001,-9.682470000000002
2438,-1.7756100000000001,-1.4813100000000001,-9.682470000000002
2439,-1.8050400000000002,-1.3734000000000002,-9.623610000000001
2440,-1.8050400000000002,-1.3734000000000002,-9.623610000000001
2441,-1.1968200000000002,-1.6186500000000001,-9.162540000000002
2442,-1.1968200000000002,-1.6186500000000001,-9.162540000000002
2443,-0.81423,-1.6382700000000001,-9.27045
2444,-0.81423,-1.6382700000000001,-9.27045
2445,-0.81423,-1.6382700000000001,-9.27045
2446,-0.81423,-2.1483900000000005,-9.868860000000002
2447,-0.81423,-2.1483900000000005,-9.868860000000002
2448,-0.7063200000000001,-2.2563000000000004,-9.81
2449,-0.7063200000000001,-2.2563000000000004,-9.81
2450,-1.06929,-2.10915,-9.59418
2451,-1.06929,-2.10915,-9.59418
2452,-1.06929,-2.10915,-9.59418
2453,-1.14777,-1.7756100000000001,-9.28026
2454,-1.14777,-1.7756100000000001,-9.28026
2455,-1.05948,-2.4525,-9.50589
2456,-1.05948,-2.4525,-9.50589
2457,-1.05948,-2.4525,-9.50589
2458,-0.9123300000000001,-2.17782,-9.45684
2459,-0.9123300000000001,-2.17782,-9.45684
2460,-0.9711900000000001,-2.5702200000000004,-9.633420000000001
2461,-0.9711900000000001,-2.5702200000000004,-9.633420000000001
2462,-0.96138,-2.5604100000000005,-9.329310000000001
2463,-0.96138,-2.5604100000000005,-9.329310000000001
2464,-0.96138,-2.5604100000000005,-9.329310000000001
2465,-0.7651800000000001,-2.62908,-9.623610000000001
2466,-0.7651800000000001,-2.62908,-9.623610000000001
2467,-0.9123300000000001,-2.70756,-9.37836
2468,-0.9123300000000001,-2.70756,-9.37836
2469,-0.7749900000000001,-2.6781300000000003,-9.5157
2470,-0.7749900000000001,-2.6781300000000003,-9.5157
2471,-0.7749900000000001,-2.6781300000000003,-9.5157
2472,-0.8632800000000002,-2.9135700000000004,-9.37836
2473,-0.8632800000000002,-2.9135700000000004,-9.37836
2474,-0.8632800000000002,-2.9135700000000004,-9.37836
2475,-1.2752999999999999,-2.90376,-9.623610000000001
2476,-1.2752999999999999,-2.90376,-9.623610000000001
2477,-0.9711900000000001,-2.9822400000000004,-9.53532
2478,-0.9711900000000001,-2.9822400000000004,-9.53532
2479,-0.8338500000000001,-2.48193,-9.731520000000002
2480,-0.8338500000000001,-2.48193,-9.731520000000002
2481,-1.00062,-2.29554,-9.67266
2482,-1.00062,-2.29554,-9.67266
2483,-1.00062,-2.29554,-9.67266
2484,-1.2752999999999999,-1.83447,-9.38817
2485,-1.2752999999999999,-1.83447,-9.38817
2486,-1.2752999999999999,-1.83447,-9.38817
2487,-1.20663,-1.75599,-9.819810000000002
2488,-1.20663,-1.75599,-9.819810000000002
2489,-1.20663,-2.48193,-9.437220000000002
2490,-1.20663,-2.48193,-9.437220000000002
2491,-1.4813100000000001,-2.5505999999999998,-9.721710000000002
2492,-1.4813100000000001,-2.5505999999999998,-9.721710000000002
2493,-1.4813100000000001,-2.5505999999999998,-9.721710000000002
2494,-0.7749900000000001,-2.2661100000000003,-9.66285
2495,-0.7749900000000001,-2.2661100000000003,-9.66285
2496,-0.15696000000000002,-1.83447,-9.18216
2497,-0.15696000000000002,-1.83447,-9.18216
2498,-0.7063200000000001,-2.1974400000000003,-9.65304
2499,-0.7063200000000001,-2.1974400000000003,-9.65304
2500,-0.7063200000000001,-2.1974400000000003,-9.65304
2501,-0.7063200000000001,-2.1974400000000003,-9.65304
2502,-0.7063200000000001,-2.1974400000000003,-9.65304
2503,-1.08891,-2.3740200000000002,-9.623610000000001
2504,-1.08891,-2.3740200000000002,-9.623610000000001
2505,-1.08891,-2.3740200000000002,-9.623610000000001
2506,-1.08891,-2.3740200000000002,-9.623610000000001
2507,-1.08891,-2.3740200000000002,-9.623610000000001
2508,-0.5199300000000001,-1.9718100000000003,-9.56475
2509,-0.5199300000000001,-1.9718100000000003,-9.56475
2510,-0.5199300000000001,-1.9718100000000003,-9.56475
2511,-0.5199300000000001,-1.9718100000000003,-9.56475
2512,-0.5199300000000001,-1.9718100000000003,-9.56475
2513,-0.9221400000000001,-1.71675,-9.574560000000002
2514,-0.9221400000000001,-1.71675,-9.574560000000002
2515,-0.9221400000000001,-1.71675,-9.574560000000002
2516,-0.9221400000000001,-1.71675,-9.574560000000002
2517,-0.9221400000000001,-1.71675,-9.574560000000002
2518,-0.37278000000000006,-1.30473,-9.770760000000001
2519,-0.37278000000000006,-1.30473,-9.770760000000001
2520,-0.37278000000000006,-1.30473,-9.770760000000001
2521,-0.37278000000000006,-1.30473,-9.770760000000001
2522,-0.37278000000000006,-1.30473,-9.770760000000001
2523,-0.06867000000000001,-1.6186500000000001,-9.084060000000001
2524,-0.06867000000000001,-1.6186500000000001,-9.084060000000001
2525,-0.06867000000000001,-1.6186500000000001,-9.084060000000001
2526,-0.06867000000000001,-1.6186500000000001,-9.084060000000001
2527,-0.06867000000000001,-1.6186500000000001,-9.084060000000001
2528,-0.5493600000000001,-1.3734000000000002,-9.888480000000001
2529,-0.5493600000000001,-1.3734000000000002,-9.888480000000001
2530,-0.5493600000000001,-1.3734000000000002,-9.888480000000001
2531,-0.5493600000000001,-1.3734000000000002,-9.888480000000001
2532,-0.5493600000000001,-1.3734000000000002,-9.888480000000001
2533,-0.5493600000000001,-1.3734000000000002,-9.888480000000001
2534,-0.34335000000000004,-1.31454,-9.74133
2535,-0.34335000000000004,-1.31454,-9.74133
2536,-0.34335000000000004,-1.31454,-9.74133
2537,-0.34335000000000004,-1.31454,-9.74133
2538,-0.06867000000000001,-1.5597900000000002,-9.780569999999999
2539,-0.06867000000000001,-1.5597900000000002,-9.780569999999999
2540,-0.06867000000000001,-1.5597900000000002,-9.780569999999999
2541,-0.06867000000000001,-1.5597900000000002,-9.780569999999999
2542,-0.06867000000000001,-1.5597900000000002,-9.780569999999999
2543,-0.31392000000000003,-1.8540900000000002,-9.59418
2544,-0.31392000000000003,-1.8540900000000002,-9.59418
2545,-0.31392000000000003,-1.8540900000000002,-9.59418
2546,-0.31392000000000003,-1.8540900000000002,-9.59418
2547,-0.31392000000000003,-1.8540900000000002,-9.59418
2548,-0.26487,-1.7658000000000003,-9.633420000000001
2549,-0.26487,-1.7658000000000003,-9.633420000000001
2550,-0.26487,-1.7658000000000003,-9.633420000000001
2551,-0.26487,-1.7658000000000003,-9.633420000000001
2552,-0.26487,-1.7658000000000003,-9.633420000000001
2553,-0.45126000000000005,-1.6971300000000002,-9.721710000000002
2554,-0.45126000000000005,-1.6971300000000002,-9.721710000000002
2555,-0.45126000000000005,-1.6971300000000002,-9.721710000000002
2556,-0.45126000000000005,-1.6971300000000002,-9.721710000000002
2557,-0.45126000000000005,-1.6971300000000002,-9.721710000000002
2558,-0.45126000000000005,-1.6971300000000002,-9.721710000000002
2559,-0.32373,-1.7069400000000001,-9.613800000000001
2560,-0.32373,-1.7069400000000001,-9.613800000000001
2561,-0.28449,-2.03067,-9.574560000000002
2562,-0.28449,-2.03067,-9.574560000000002
2563,-0.5395500000000001,-2.22687,-9.682470000000002
2564,-0.5395500000000001,-2.22687,-9.682470000000002
2565,-0.5984100000000001,-1.62846,-9.770760000000001
2566,-0.5984100000000001,-1.62846,-9.770760000000001
2567,-0.5984100000000001,-1.62846,-9.770760000000001
2568,-0.5199300000000001,-1.54017,-9.65304
2569,-0.5199300000000001,-1.54017,-9.65304
2570,-0.5199300000000001,-1.54017,-9.65304
2571,-0.69651,-1.5597900000000002,-9.760950000000001
2572,-0.69651,-1.5597900000000002,-9.760950000000001
2573,-0.5886,-1.5303600000000002,-9.60399
2574,-0.5886,-1.5303600000000002,-9.60399
2575,-0.66708,-1.7265600000000003,-9.74133
2576,-0.66708,-1.7265600000000003,-9.74133
2577,-0.66708,-1.7265600000000003,-9.74133
2578,-1.0987200000000001,-1.62846,-9.79038
2579,-1.0987200000000001,-1.62846,-9.79038
2580,-1.0987200000000001,-1.39302,-9.70209
2581,-1.0987200000000001,-1.39302,-9.70209
2582,-1.14777,-1.2360600000000002,-9.81
2583,-1.14777,-1.2360600000000002,-9.81
2584,-1.14777,-1.2360600000000002,-9.81
2585,-1.03005,-1.05948,-9.67266
2586,-1.03005,-1.05948,-9.67266
2587,-1.00062,-1.00062,-9.584370000000002
2588,-1.00062,-1.00062,-9.584370000000002
2589,-1.04967,-1.1183400000000001,-9.74133
2590,-1.04967,-1.1183400000000001,-9.74133
2591,-1.04967,-1.1183400000000001,-9.74133
2592,-1.0104300000000002,-1.2556800000000001,-9.70209
2593,-1.0104300000000002,-1.2556800000000001,-9.70209
2594,-1.0104300000000002,-1.2556800000000001,-9.70209
2595,-1.0987200000000001,-1.36359,-9.731520000000002
2596,-1.0987200000000001,-1.36359,-9.731520000000002
2597,-1.08891,-1.6088400000000003,-9.682470000000002
2598,-1.08891,-1.6088400000000003,-9.682470000000002
2599,-1.06929,-1.5205500000000003,-9.65304
2600,-1.06929,-1.5205500000000003,-9.65304
2601,-1.06929,-1.5205500000000003,-9.65304
2602,-1.06929,-1.39302,-9.69228
2603,-1.06929,-1.39302,-9.69228
2604,-1.2752999999999999,-1.2360600000000002,-9.67266
2605,-1.2752999999999999,-1.2360600000000002,-9.67266
2606,-1.04967,-1.2164400000000002,-9.908100000000001
2607,-1.04967,-1.2164400000000002,-9.908100000000001
2608,-1.04967,-1.2164400000000002,-9.908100000000001
2609,-1.10853,-1.0398600000000002,-9.60399
2610,-1.10853,-1.0398600000000002,-9.60399
2611,-1.22625,-0.95157,-9.65304
2612,-1.22625,-0.95157,-9.65304
2613,-1.22625,-0.95157,-9.65304
2614,-1.10853,-1.78542,-9.45684
2615,-1.10853,-1.78542,-9.45684
2616,-0.65727,-2.2661100000000003,-9.46665
2617,-0.65727,-2.2661100000000003,-9.46665
2618,-0.6278400000000001,-2.17782,-9.66285
2619,-0.6278400000000001,-2.17782,-9.66285
2620,-0.67689,-2.1974400000000003,-9.52551
2621,-0.67689,-2.1974400000000003,-9.52551
2622,-0.67689,-2.1974400000000003,-9.52551
2623,-0.3924,-2.3936400000000004,-9.52551
2624,-0.3924,-2.3936400000000004,-9.52551
2625,-1.1183400000000001,-2.7468000000000004,-9.584370000000002
2626,-1.1183400000000001,-2.7468000000000004,-9.584370000000002
2627,-1.1183400000000001,-2.7468000000000004,-9.584370000000002
2628,-0.7749900000000001,-2.42307,-9.348930000000001
2629,-0.7749900000000001,-2.42307,-9.348930000000001
2630,-0.7848,-2.30535,-9.59418
2631,-0.7848,-2.30535,-9.59418
2632,-1.1575800000000003,-2.42307,-9.329310000000001
2633,-1.1575800000000003,-2.42307,-9.329310000000001
2634,-1.1575800000000003,-2.42307,-9.329310000000001
2635,-1.43226,-1.99143,-9.23121
2636,-1.43226,-1.99143,-9.23121
2637,-1.43226,-1.99143,-9.23121
2638,-1.2360600000000002,-2.4426900000000002,-9.46665
2639,-1.2360600000000002,-2.4426900000000002,-9.46665
2640,-0.6867000000000001,-2.4034500000000003,-9.14292
2641,-0.6867000000000001,-2.4034500000000003,-9.14292
2642,-0.64746,-2.48193,-9.437220000000002
2643,-0.64746,-2.48193,-9.437220000000002
2644,-0.66708,-2.4426900000000002,-9.45684
2645,-0.66708,-2.4426900000000002,-9.45684
2646,-0.66708,-2.4426900000000002,-9.45684
2647,-0.69651,-2.4525,-9.56475
2648,-0.69651,-2.4525,-9.56475
2649,-0.69651,-2.4525,-9.56475
2650,-0.75537,-2.21706,-9.623610000000001
2651,-0.75537,-2.21706,-9.623610000000001
2652,-0.7455600000000001,-2.0895300000000003,-9.584370000000002
2653,-0.7455600000000001,-2.0895300000000003,-9.584370000000002
2654,-0.79461,-1.83447,-9.623610000000001
2655,-0.79461,-1.83447,-9.623610000000001
2656,-0.79461,-1.83447,-9.623610000000001
2657,-0.66708,-1.8639000000000001,-9.64323
2658,-0.66708,-1.8639000000000001,-9.64323
2659,-0.65727,-1.9816200000000002,-9.613800000000001
2660,-0.65727,-1.9816200000000002,-9.613800000000001
2661,-0.65727,-1.9816200000000002,-9.613800000000001
2662,-0.64746,-2.20725,-9.4176
2663,-0.64746,-2.20725,-9.4176
2664,-0.69651,-2.3544,-9.59418
2665,-0.69651,-2.3544,-9.59418
2666,-0.56898,-2.3347800000000003,-9.397980000000002
2667,-0.56898,-2.3347800000000003,-9.397980000000002
2668,-0.56898,-2.3347800000000003,-9.397980000000002
2669,-0.5886,-2.3544,-9.54513
2670,-0.5886,-2.3544,-9.54513
2671,-0.5886,-2.3544,-9.54513
2672,-0.5886,-2.24649,-9.397980000000002
2673,-0.5886,-2.24649,-9.397980000000002
